Folder: fitting-experimental/exp data/EIS mpt files/single type poluted (part 2)

File: RM_stacked second run D12_2_C04.mpt
EC-Lab ASCII FILE
Nb header lines : 66

Potentio Electrochemical Impedance Spectroscopy

Run on channel : 4 (SN 13229)
User :
CE vs. WE compliance from -10 V to 10 V
Electrode connection : standard
Potential control : Ewe
Ewe ctrl range : min = -1.00 V, max = 1.00 V
Safety Limits :
	Do not start on E overload
Acquisition started on : 09/05/2018 15:23:22.000
Loaded Setting File : NONE
Saved on :
	File : RM_stacked second run D12_2_C04.mpr
	Directory : D:\Robert\Stacked cells\Second run 3% and 12% PVDF electrodes 12%compressed\
	Host : 10.5.5.6
Device : VMP3 (SN 0628)
Address : 10.5.5.5
EC-Lab for windows v11.17 (software)
Internet server v11.16 (firmware)
Command interpretor v11.16 (firmware)
Electrode material :
Initial state :
Electrolyte :
Comments :
Electrode surface area : 0.001 cm²
Characteristic mass : 0.001 g
Equivalent Weight : 0.000 g/eq.
Density : 0.000 g/cm3
Volume (V) : 0.000 m³
Text export
   Mode : Standard
   Time format : Elapsed
Cycle Definition : Charge/Discharge alternance
Mode                Single sine
E (V)               0.0000
vs.                 Eoc
tE (h:m:s)          0:00:3.0000
record              1
dI                  0.000
unit dI             mA
dt (s)              60.000
fi                  200.000
unit fi             kHz
ff                  10.000
unit ff             mHz
Nd                  8
Points              per decade
spacing             Logarithmic
Va (mV)             20.0
pw                  3.00
Na                  5
corr                0
E range min (V)     -1.000
E range max (V)     1.000
I Range             Auto
Bandwidth           5
nc cycles           0
goto Ns'            0
nr cycles           0
inc. cycle          0

freq/Hz	Re(Z)/Ohm	-Im(Z)/Ohm	|Z|/Ohm	Phase(Z)/deg	time/s	<Ewe>/V	<I>/mA	Cs/µF	Cp/µF	cycle number	I Range	|Ewe|/V	|I|/A	Re(Y)/Ohm-1	Im(Y)/Ohm-1	|Y|/Ohm-1	Phase(Y)/deg	Re(C)/nF	Im(C)/nF	|C|/nF	Phase(C)/deg	Re(M)	Im(M)	|M|	Phase(M)/deg	Re(Permittivity)	Im(Permittivity)	|Permittivity|	Phase(Permittivity)/deg	Re(Resistivity)/Ohm.cm	Im(Resistivity)/Ohm.cm	|Resistivity|/Ohm.cm	Phase(Resistivity)/deg	Re(Conductivity)/mS/cm	Im(Conductivity)/mS/cm	|Conductivity|/mS/cm	Phase(Conductivity)/deg	Tan(Delta)	Loss Angle(Delta)/deg
200019	138.441	0.931801	138.445	-0.385632	09/05/2018 15:23:27.3311	0.00246872	-0.002887	0.853934	3.86829e-05	1	11	0.0185558	0.00013403	0.00722295	4.86152e-05	0.00722311	0.385632	0.0386833	5.74728	5.74741	-89.6144	0.0000000E+000	0.0000000E+000	0.0000000E+000	89.6144	0.0000000E+000	0.0000000E+000	0.0000000E+000	-89.6144	0.0000000E+000	0.0000000E+000	0.0000000E+000	-0.385632	0.0000000E+000	0.0000000E+000	0.0000000E+000	0.385632	148.574	89.6144
83828.1	138.275	1.84858	138.287	-0.765936	09/05/2018 15:23:30.5251	0.00314317	0.00177691	1.02705	0.00018353	1	11	0.0207031	0.000149711	0.00723069	9.66665e-05	0.00723134	0.765936	0.18353	13.7281	13.7293	-89.2341	0.0000000E+000	0.0000000E+000	0.0000000E+000	89.2341	0.0000000E+000	0.0000000E+000	0.0000000E+000	-89.2341	0.0000000E+000	0.0000000E+000	0.0000000E+000	-0.765936	0.0000000E+000	0.0000000E+000	0.0000000E+000	0.765936	74.8004	89.2341
35136.7	139.305	2.25012	139.323	-0.925389	09/05/2018 15:23:33.7191	0.00315172	0.00170697	2.01305	0.000525073	1	11	0.0203733	0.000146231	0.00717664	0.000115921	0.00717758	0.925389	0.525075	32.5072	32.5115	-89.0746	0.0000000E+000	0.0000000E+000	0.0000000E+000	89.0746	0.0000000E+000	0.0000000E+000	0.0000000E+000	-89.0746	0.0000000E+000	0.0000000E+000	0.0000000E+000	-0.925389	0.0000000E+000	0.0000000E+000	0.0000000E+000	0.925389	61.91	89.0746
14726.6	140.492	2.51442	140.515	-1.02532	09/05/2018 15:23:36.7881	0.00314263	0.00165979	4.29814	0.0013763	1	11	0.0212723	0.000151388	0.00711554	0.000127348	0.00711668	1.02532	1.37629	76.9001	76.9124	-88.9747	0.0000000E+000	0.0000000E+000	0.0000000E+000	88.9747	0.0000000E+000	0.0000000E+000	0.0000000E+000	-88.9747	0.0000000E+000	0.0000000E+000	0.0000000E+000	-1.02532	0.0000000E+000	0.0000000E+000	0.0000000E+000	1.02532	55.8747	88.9747
6195.49	141.621	3.11487	141.655	-1.25998	09/05/2018 15:23:40.3768	0.00316832	0.00172842	8.24716	0.00398766	1	11	0.0205023	0.000144734	0.00705768	0.000155229	0.00705939	1.25998	3.98765	181.304	181.347	-88.74	0.0000000E+000	0.0000000E+000	0.0000000E+000	88.74	0.0000000E+000	0.0000000E+000	0.0000000E+000	-88.74	0.0000000E+000	0.0000000E+000	0.0000000E+000	-1.25998	0.0000000E+000	0.0000000E+000	0.0000000E+000	1.25998	45.4661	88.74
2585.83	143.268	4.53099	143.339	-1.81143	09/05/2018 15:23:45.4407	0.00317167	0.00171481	13.584	0.0135732	1	11	0.0207347	0.000144655	0.00697297	0.000220527	0.00697646	1.81143	13.5732	429.179	429.394	-88.1886	0.0000000E+000	0.0000000E+000	0.0000000E+000	88.1886	0.0000000E+000	0.0000000E+000	0.0000000E+000	-88.1886	0.0000000E+000	0.0000000E+000	0.0000000E+000	-1.81143	0.0000000E+000	0.0000000E+000	0.0000000E+000	1.81143	31.6195	88.1886
1083.96	145.62	6.83998	145.78	-2.68929	09/05/2018 15:23:50.5069	0.0031676	0.00173345	21.4661	0.0472567	1	11	0.020769	0.000142467	0.00685208	0.000321852	0.00685963	2.68929	47.2566	1006.07	1007.18	-87.3107	0.0000000E+000	0.0000000E+000	0.0000000E+000	87.3107	0.0000000E+000	0.0000000E+000	0.0000000E+000	-87.3107	0.0000000E+000	0.0000000E+000	0.0000000E+000	-2.68929	0.0000000E+000	0.0000000E+000	0.0000000E+000	2.68929	21.2895	87.3107
454.564	149.196	10.5214	149.566	-4.03388	09/05/2018 15:23:55.5600	0.00317068	0.00170679	33.2775	0.164677	1	11	0.020772	0.000138882	0.00666944	0.000470336	0.00668601	4.03388	164.677	2335.15	2340.95	-85.9661	0.0000000E+000	0.0000000E+000	0.0000000E+000	85.9661	0.0000000E+000	0.0000000E+000	0.0000000E+000	-85.9661	0.0000000E+000	0.0000000E+000	0.0000000E+000	-4.03388	0.0000000E+000	0.0000000E+000	0.0000000E+000	4.03388	14.1802	85.9661
190.549	154.674	16.6059	155.563	-6.12781	09/05/2018 15:24:00.6192	0.00316444	0.00173476	50.2982	0.573141	1	11	0.0207721	0.000133528	0.00639152	0.000686195	0.00642825	6.12781	573.14	5338.49	5369.17	-83.8722	0.0000000E+000	0.0000000E+000	0.0000000E+000	83.8722	0.0000000E+000	0.0000000E+000	0.0000000E+000	-83.8722	0.0000000E+000	0.0000000E+000	0.0000000E+000	-6.12781	0.0000000E+000	0.0000000E+000	0.0000000E+000	6.12781	9.31444	83.8722
79.8212	163.244	26.6676	165.408	-9.27794	09/05/2018 15:24:05.6862	0.00316427	0.00169075	74.7682	1.94346	1	11	0.0207687	0.00012556	0.00596658	0.000974707	0.00604567	9.27794	1943.46	11896.7	12054.4	-80.7221	0.0000000E+000	0.0000000E+000	0.0000000E+000	80.7221	0.0000000E+000	0.0000000E+000	0.0000000E+000	-80.7221	0.0000000E+000	0.0000000E+000	0.0000000E+000	-9.27794	0.0000000E+000	0.0000000E+000	0.0000000E+000	9.27794	6.12141	80.7221
33.4276	177.309	43.1707	182.489	-13.684	09/05/2018 15:24:11.0942	0.00316419	9.99702e-05	110.287	6.17208	1	12	0.020783	0.000113886	0.00532424	0.00129633	0.00547978	13.684	6172.08	25349.7	26090.3	-76.316	0.0000000E+000	0.0000000E+000	0.0000000E+000	76.316	0.0000000E+000	0.0000000E+000	0.0000000E+000	-76.316	0.0000000E+000	0.0000000E+000	0.0000000E+000	-13.684	0.0000000E+000	0.0000000E+000	0.0000000E+000	13.684	4.10716	76.316
[...]
2.46607	302.483	171.233	347.588	-29.5138	09/05/2018 15:24:29.2944	0.00316183	0.000101534	376.901	91.4693	1	12	0.020768	5.97488e-05	0.00250365	0.00141729	0.00287697	29.5138	91469.2	161580	185674	-60.4862	0.0000000E+000	0.0000000E+000	0.0000000E+000	60.4862	0.0000000E+000	0.0000000E+000	0.0000000E+000	-60.4862	0.0000000E+000	0.0000000E+000	0.0000000E+000	-29.5138	0.0000000E+000	0.0000000E+000	0.0000000E+000	29.5138	1.7665	60.4862
1.0334	389.647	249.232	462.538	-32.6044	09/05/2018 15:24:48.1609	0.00317158	2.20919e-05	617.943	179.416	1	13	0.0207712	4.4907e-05	0.00182128	0.00116496	0.00216199	32.6044	179416	280497	332970	-57.3956	0.0000000E+000	0.0000000E+000	0.0000000E+000	57.3956	0.0000000E+000	0.0000000E+000	0.0000000E+000	-57.3956	0.0000000E+000	0.0000000E+000	0.0000000E+000	-32.6044	0.0000000E+000	0.0000000E+000	0.0000000E+000	32.6044	1.56339	57.3956
0.433065	459.795	398.528	608.47	-40.9172	09/05/2018 15:25:31.0340	0.0031684	8.06238e-05	922.163	395.592	1	13	0.0207676	3.41308e-05	0.0012419	0.00107642	0.00164347	40.9172	395592	456407	603987	-49.0828	0.0000000E+000	0.0000000E+000	0.0000000E+000	49.0828	0.0000000E+000	0.0000000E+000	0.0000000E+000	-49.0828	0.0000000E+000	0.0000000E+000	0.0000000E+000	-40.9172	0.0000000E+000	0.0000000E+000	0.0000000E+000	40.9172	1.15373	49.0828
0.181534	509.735	795	944.381	-57.333	09/05/2018 15:27:13.0727	0.00317382	2.02851e-05	1102.8	781.511	1	13	0.0207659	2.19889e-05	0.000571545	0.000891401	0.00105889	57.333	781511	501086	928357	-32.667	0.0000000E+000	0.0000000E+000	0.0000000E+000	32.667	0.0000000E+000	0.0000000E+000	0.0000000E+000	-32.667	0.0000000E+000	0.0000000E+000	0.0000000E+000	-57.333	0.0000000E+000	0.0000000E+000	0.0000000E+000	57.333	0.641176	32.667
0.0761037	580.279	1764.72	1857.67	-71.798	09/05/2018 15:31:16.0812	0.00317577	2.15004e-05	1185.06	1069.43	1	13	0.0207656	1.11783e-05	0.00016815	0.000511371	0.000538308	71.798	1.06943e+06	351651	1.12576e+06	-18.202	0.0000000E+000	0.0000000E+000	0.0000000E+000	18.202	0.0000000E+000	0.0000000E+000	0.0000000E+000	-18.202	0.0000000E+000	0.0000000E+000	0.0000000E+000	-71.798	0.0000000E+000	0.0000000E+000	0.0000000E+000	71.798	0.328823	18.202
0.0319138	729.795	4033.41	4098.9	-79.744	09/05/2018 15:40:55.3794	0.00316952	1.79768e-05	1236.43	1197.23	1	13	0.0207633	5.06556e-06	4.34375e-05	0.00024007	0.000243968	79.744	1.19723e+06	216624	1.21667e+06	-10.256	0.0000000E+000	0.0000000E+000	0.0000000E+000	10.256	0.0000000E+000	0.0000000E+000	0.0000000E+000	-10.256	0.0000000E+000	0.0000000E+000	0.0000000E+000	-79.744	0.0000000E+000	0.0000000E+000	0.0000000E+000	79.744	0.180937	10.256
0.0133776	1095.54	9288.46	9352.84	-83.2733	09/05/2018 16:04:39.9850	0.00317281	2.40779e-06	1280.85	1263.28	1	14	0.0207643	2.22011e-06	1.25239e-05	0.000106183	0.000106919	83.2733	1.26328e+06	148999	1.27204e+06	-6.72672	0.0000000E+000	0.0000000E+000	0.0000000E+000	6.72672	0.0000000E+000	0.0000000E+000	0.0000000E+000	-6.72672	0.0000000E+000	0.0000000E+000	0.0000000E+000	-83.2733	0.0000000E+000	0.0000000E+000	0.0000000E+000	83.2733	0.117946	6.72672
0.0100058	1317.07	12270.2	12340.7	-83.8734	09/05/2018 16:18:00.1511	0.00317511	2.59847e-06	1296.34	1281.57	1	14	0.0207645	1.6826e-06	8.64831e-06	8.05699e-05	8.10328e-05	83.8734	1.28157e+06	137563	1.28893e+06	-6.12663	0.0000000E+000	0.0000000E+000	0.0000000E+000	6.12663	0.0000000E+000	0.0000000E+000	0.0000000E+000	-6.12663	0.0000000E+000	0.0000000E+000	0.0000000E+000	-83.8734	0.0000000E+000	0.0000000E+000	0.0000000E+000	83.8734	0.107339	6.12662

File: RM_stacked second run S3_1_C03.mpt
EC-Lab ASCII FILE
Nb header lines : 66

Potentio Electrochemical Impedance Spectroscopy

Run on channel : 3 (SN 13993)
User :
CE vs. WE compliance from -10 V to 10 V
Electrode connection : standard
Potential control : Ewe
Ewe ctrl range : min = -1.00 V, max = 1.00 V
Safety Limits :
	Do not start on E overload
Acquisition started on : 09/05/2018 13:40:25.000
Loaded Setting File : NONE
Saved on :
	File : RM_stacked second run S3_1_C03.mpr
	Directory : D:\Robert\Stacked cells\Second run 3% and 12% PVDF electrodes 12%compressed\
	Host : 10.5.5.6
Device : VMP3 (SN 0628)
Address : 10.5.5.5
EC-Lab for windows v11.17 (software)
Internet server v11.16 (firmware)
Command interpretor v11.16 (firmware)
Electrode material :
Initial state :
Electrolyte :
Comments :
Electrode surface area : 0.001 cm²
Characteristic mass : 0.001 g
Equivalent Weight : 0.000 g/eq.
Density : 0.000 g/cm3
Volume (V) : 0.000 m³
Text export
   Mode : Standard
   Time format : Elapsed
Cycle Definition : Charge/Discharge alternance
Mode                Single sine
E (V)               0.0000
vs.                 Eoc
tE (h:m:s)          0:00:3.0000
record              1
dI                  0.000
unit dI             mA
dt (s)              60.000
fi                  200.000
unit fi             kHz
ff                  10.000
unit ff             mHz
Nd                  8
Points              per decade
spacing             Logarithmic
Va (mV)             20.0
pw                  3.00
Na                  5
corr                0
E range min (V)     -1.000
E range max (V)     1.000
I Range             Auto
Bandwidth           5
nc cycles           0
goto Ns'            0
nr cycles           0
inc. cycle          0

freq/Hz	Re(Z)/Ohm	-Im(Z)/Ohm	|Z|/Ohm	Phase(Z)/deg	time/s	<Ewe>/V	<I>/mA	Cs/µF	Cp/µF	cycle number	I Range	|Ewe|/V	|I|/A	Re(Y)/Ohm-1	Im(Y)/Ohm-1	|Y|/Ohm-1	Phase(Y)/deg	Re(C)/nF	Im(C)/nF	|C|/nF	Phase(C)/deg	Re(M)	Im(M)	|M|	Phase(M)/deg	Re(Permittivity)	Im(Permittivity)	|Permittivity|	Phase(Permittivity)/deg	Re(Resistivity)/Ohm.cm	Im(Resistivity)/Ohm.cm	|Resistivity|/Ohm.cm	Phase(Resistivity)/deg	Re(Conductivity)/mS/cm	Im(Conductivity)/mS/cm	|Conductivity|/mS/cm	Phase(Conductivity)/deg	Tan(Delta)	Loss Angle(Delta)/deg
200019	160.179	0.95228	160.182	-0.340625	09/05/2018 13:40:30.3331	-0.0013755	0.00226125	0.835571	2.95315e-05	1	11	0.0182195	0.000113742	0.0062428	3.7114e-05	0.00624291	0.340625	0.0295313	4.96738	4.96746	-89.6594	0.0000000E+000	0.0000000E+000	0.0000000E+000	89.6594	0.0000000E+000	0.0000000E+000	0.0000000E+000	-89.6594	0.0000000E+000	0.0000000E+000	0.0000000E+000	-0.340625	0.0000000E+000	0.0000000E+000	0.0000000E+000	0.340625	168.206	89.6594
83828.1	159.799	2.55178	159.82	-0.914858	09/05/2018 13:40:33.5281	-0.00130588	0.00241118	0.744024	0.000189676	1	11	0.0206988	0.000129513	0.00625625	9.99039e-05	0.00625705	0.914858	0.189676	11.878	11.8796	-89.0851	0.0000000E+000	0.0000000E+000	0.0000000E+000	89.0851	0.0000000E+000	0.0000000E+000	0.0000000E+000	-89.0851	0.0000000E+000	0.0000000E+000	0.0000000E+000	-0.914858	0.0000000E+000	0.0000000E+000	0.0000000E+000	0.914858	62.6227	89.0851
35136.7	161.549	3.24187	161.581	-1.14963	09/05/2018 13:40:36.7231	-0.00128303	0.00244749	1.39721	0.000562437	1	11	0.0203498	0.000125941	0.0061876	0.000124169	0.00618884	1.14963	0.562437	28.0273	28.0329	-88.8504	0.0000000E+000	0.0000000E+000	0.0000000E+000	88.8504	0.0000000E+000	0.0000000E+000	0.0000000E+000	-88.8504	0.0000000E+000	0.0000000E+000	0.0000000E+000	-1.14963	0.0000000E+000	0.0000000E+000	0.0000000E+000	1.14963	49.8318	88.8504
14726.6	163.393	3.21352	163.425	-1.12671	09/05/2018 13:40:39.7921	-0.00126567	0.00245364	3.36309	0.00130036	1	11	0.0202645	0.000123999	0.00611783	0.000120322	0.00611901	1.12671	1.30035	66.1175	66.1303	-88.8733	0.0000000E+000	0.0000000E+000	0.0000000E+000	88.8733	0.0000000E+000	0.0000000E+000	0.0000000E+000	-88.8733	0.0000000E+000	0.0000000E+000	0.0000000E+000	-1.12671	0.0000000E+000	0.0000000E+000	0.0000000E+000	1.12671	50.8457	88.8733
6195.49	164.846	3.4643	164.882	-1.20391	09/05/2018 13:40:43.2388	-0.00126658	0.0022307	7.4153	0.00327349	1	11	0.0213703	0.000129609	0.00606359	0.000127429	0.00606493	1.20391	3.2735	155.766	155.801	-88.7961	0.0000000E+000	0.0000000E+000	0.0000000E+000	88.7961	0.0000000E+000	0.0000000E+000	0.0000000E+000	-88.7961	0.0000000E+000	0.0000000E+000	0.0000000E+000	-1.20391	0.0000000E+000	0.0000000E+000	0.0000000E+000	1.20391	47.5842	88.7961
2585.83	166.609	4.49438	166.67	-1.54521	09/05/2018 13:40:48.3007	-0.00126923	0.00225603	13.6947	0.0099581	1	11	0.0215813	0.000129486	0.00599771	0.000161792	0.00599989	1.54521	9.9581	369.153	369.287	-88.4548	0.0000000E+000	0.0000000E+000	0.0000000E+000	88.4548	0.0000000E+000	0.0000000E+000	0.0000000E+000	-88.4548	0.0000000E+000	0.0000000E+000	0.0000000E+000	-1.54521	0.0000000E+000	0.0000000E+000	0.0000000E+000	1.54521	37.0706	88.4548
1083.96	168.917	6.28305	169.034	-2.13019	09/05/2018 13:40:53.3649	-0.00126772	0.00214726	23.3688	0.0322872	1	11	0.0216096	0.000127842	0.00591189	0.000219899	0.00591598	2.13019	32.2872	868.027	868.627	-87.8698	0.0000000E+000	0.0000000E+000	0.0000000E+000	87.8698	0.0000000E+000	0.0000000E+000	0.0000000E+000	-87.8698	0.0000000E+000	0.0000000E+000	0.0000000E+000	-2.13019	0.0000000E+000	0.0000000E+000	0.0000000E+000	2.13019	26.8846	87.8698
454.564	172.296	9.25309	172.544	-3.0741	09/05/2018 13:40:58.4199	-0.00126384	0.0021901	37.8389	0.108821	1	11	0.0216139	0.000125266	0.00578729	0.000310805	0.00579563	3.0741	108.821	2026.29	2029.21	-86.9259	0.0000000E+000	0.0000000E+000	0.0000000E+000	86.9259	0.0000000E+000	0.0000000E+000	0.0000000E+000	-86.9259	0.0000000E+000	0.0000000E+000	0.0000000E+000	-3.0741	0.0000000E+000	0.0000000E+000	0.0000000E+000	3.0741	18.6203	86.9259
190.549	177.283	14.0617	177.839	-4.53508	09/05/2018 13:41:03.4792	-0.00127161	0.00219066	59.3987	0.37136	1	11	0.0216133	0.000121533	0.00560544	0.000444612	0.00562305	4.53508	371.36	4681.92	4696.63	-85.4649	0.0000000E+000	0.0000000E+000	0.0000000E+000	85.4649	0.0000000E+000	0.0000000E+000	0.0000000E+000	-85.4649	0.0000000E+000	0.0000000E+000	0.0000000E+000	-4.53508	0.0000000E+000	0.0000000E+000	0.0000000E+000	4.53508	12.6075	85.4649
79.8212	184.946	21.5648	186.199	-6.65069	09/05/2018 13:41:08.5462	-0.00127044	0.00211784	92.4605	1.2402	1	11	0.02161	0.000116059	0.00533446	0.000622001	0.0053706	6.65069	1240.2	10636.3	10708.4	-83.3493	0.0000000E+000	0.0000000E+000	0.0000000E+000	83.3493	0.0000000E+000	0.0000000E+000	0.0000000E+000	-83.3493	0.0000000E+000	0.0000000E+000	0.0000000E+000	-6.65069	0.0000000E+000	0.0000000E+000	0.0000000E+000	6.65069	8.57629	83.3493
33.4276	196.891	33.1273	199.658	-9.55069	09/05/2018 13:41:13.9452	-0.00127183	0.000144149	143.724	3.95665	1	12	0.0216222	0.000108296	0.00493914	0.000831022	0.00500857	9.55069	3956.65	23516.2	23846.7	-80.4493	0.0000000E+000	0.0000000E+000	0.0000000E+000	80.4493	0.0000000E+000	0.0000000E+000	0.0000000E+000	-80.4493	0.0000000E+000	0.0000000E+000	0.0000000E+000	-9.55069	0.0000000E+000	0.0000000E+000	0.0000000E+000	9.55069	5.94346	80.4493
[...]
2.46607	285.165	115.378	307.621	-22.0283	09/05/2018 13:41:32.1454	-0.00129883	0.000162336	559.363	78.6872	1	12	0.0216111	7.02524e-05	0.00301344	0.00121924	0.00325075	22.0283	78687.3	194481	209797	-67.9717	0.0000000E+000	0.0000000E+000	0.0000000E+000	67.9717	0.0000000E+000	0.0000000E+000	0.0000000E+000	-67.9717	0.0000000E+000	0.0000000E+000	0.0000000E+000	-22.0283	0.0000000E+000	0.0000000E+000	0.0000000E+000	22.0283	2.47158	67.9717
1.0334	349.012	174.714	390.3	-26.5924	09/05/2018 13:41:50.2428	-0.00126555	0.000238123	881.504	176.637	1	12	0.0216106	5.53691e-05	0.00229109	0.00114691	0.00256213	26.5924	176637	352854	394596	-63.4076	0.0000000E+000	0.0000000E+000	0.0000000E+000	63.4076	0.0000000E+000	0.0000000E+000	0.0000000E+000	-63.4076	0.0000000E+000	0.0000000E+000	0.0000000E+000	-26.5924	0.0000000E+000	0.0000000E+000	0.0000000E+000	26.5924	1.99762	63.4076
0.433065	434.117	255.052	503.497	-30.435	09/05/2018 13:42:34.8892	-0.00126358	9.80059e-05	1440.91	369.744	1	13	0.0216111	4.29219e-05	0.00171243	0.00100609	0.00198611	30.435	369744	629332	729911	-59.565	0.0000000E+000	0.0000000E+000	0.0000000E+000	59.565	0.0000000E+000	0.0000000E+000	0.0000000E+000	-59.565	0.0000000E+000	0.0000000E+000	0.0000000E+000	-30.435	0.0000000E+000	0.0000000E+000	0.0000000E+000	30.435	1.70207	59.565
0.181534	498.147	419.589	651.311	-40.1074	09/05/2018 13:44:16.9263	-0.00129323	6.10904e-05	2089.48	867.181	1	13	0.0216124	3.31829e-05	0.00117431	0.000989117	0.00153537	40.1074	867181	1.02954e+06	1.34609e+06	-49.8926	0.0000000E+000	0.0000000E+000	0.0000000E+000	49.8926	0.0000000E+000	0.0000000E+000	0.0000000E+000	-49.8926	0.0000000E+000	0.0000000E+000	0.0000000E+000	-40.1074	0.0000000E+000	0.0000000E+000	0.0000000E+000	40.1074	1.18723	49.8926
0.0761037	545.081	854.891	1013.88	-57.4783	09/05/2018 13:48:19.9337	-0.00126299	5.35092e-05	2446.27	1739.21	1	13	0.0216095	2.13137e-05	0.000530259	0.000831645	0.00098631	57.4783	1.73921e+06	1.10893e+06	2.06266e+06	-32.5217	0.0000000E+000	0.0000000E+000	0.0000000E+000	32.5217	0.0000000E+000	0.0000000E+000	0.0000000E+000	-32.5217	0.0000000E+000	0.0000000E+000	0.0000000E+000	-57.4783	0.0000000E+000	0.0000000E+000	0.0000000E+000	57.4783	0.637602	32.5217
0.0319138	616.816	1913.76	2010.7	-72.1355	09/05/2018 13:57:59.2290	-0.00126827	4.68138e-05	2605.89	2360.66	1	13	0.0216081	1.07465e-05	0.000152567	0.00047336	0.000497339	72.1355	2.36066e+06	760855	2.48024e+06	-17.8645	0.0000000E+000	0.0000000E+000	0.0000000E+000	17.8645	0.0000000E+000	0.0000000E+000	0.0000000E+000	-17.8645	0.0000000E+000	0.0000000E+000	0.0000000E+000	-72.1355	0.0000000E+000	0.0000000E+000	0.0000000E+000	72.1355	0.322306	17.8645
0.0133776	777.095	4388.33	4456.6	-79.958	09/05/2018 14:22:16.7383	-0.00128544	6.23198e-06	2711.09	2628.66	1	14	0.021609	4.84875e-06	3.91261e-05	0.000220949	0.000224386	79.958	2.62866e+06	465489	2.66956e+06	-10.042	0.0000000E+000	0.0000000E+000	0.0000000E+000	10.042	0.0000000E+000	0.0000000E+000	0.0000000E+000	-10.042	0.0000000E+000	0.0000000E+000	0.0000000E+000	-79.958	0.0000000E+000	0.0000000E+000	0.0000000E+000	79.958	0.177082	10.042
0.0100058	871.456	5797	5862.14	-81.4508	09/05/2018 14:35:36.9003	-0.00127839	4.42499e-06	2743.89	2683.25	1	14	0.0216111	3.68655e-06	2.5359e-05	0.000168691	0.000170586	81.4508	2.68325e+06	403369	2.7134e+06	-8.54918	0.0000000E+000	0.0000000E+000	0.0000000E+000	8.54918	0.0000000E+000	0.0000000E+000	0.0000000E+000	-8.54918	0.0000000E+000	0.0000000E+000	0.0000000E+000	-81.4508	0.0000000E+000	0.0000000E+000	0.0000000E+000	81.4508	0.150329	8.54918