Folder: fitting-experimental/exp data/EIS mpt files/single type poluted

File: RM_stacked second run D3_2_C08.mpt
EC-Lab ASCII FILE
Nb header lines : 70

Potentio Electrochemical Impedance Spectroscopy

Run on channel : 8 (SN 13213)
User :
CE vs. WE compliance from -10 V to 10 V
Electrode connection : standard
Potential control : Ewe
Ewe ctrl range : min = -1.00 V, max = 1.00 V
Safety Limits :
	Do not start on E overload
Acquisition started on : 09/05/2018 13:41:35.000
Loaded Setting File : NONE
Saved on :
	File : RM_stacked second run D3_2_C08.mpr
	Directory : D:\Robert\Stacked cells\Second run 3% and 12% PVDF electrodes 12%compressed\
	Host : 10.5.5.6
Device : VMP3 (SN 0628)
Address : 10.5.5.5
EC-Lab for windows v11.17 (software)
Internet server v11.16 (firmware)
Command interpretor v11.16 (firmware)
Electrode material :
Initial state :
Electrolyte :
Comments :
Electrode surface area : 0.001 cm²
Characteristic mass : 0.001 g
Equivalent Weight : 0.000 g/eq.
Density : 0.000 g/cm3
Volume (V) : 0.000 m³
Text export
   Mode : Standard
   Time format : Elapsed
Cycle Definition : Charge/Discharge alternance
Mode                Single sine
E (V)               0.0000
vs.                 Eoc
tE (h:m:s)          0:00:3.0000
record              1
dI                  0.000
unit dI             mA
dt (s)              60.000
fi                  200.000
unit fi             kHz
ff                  10.000
unit ff             mHz
Nd                  8
Points              per decade
spacing             Logarithmic
Va (mV)             20.0
pw                  3.00
Na                  5
corr                0
E range min (V)     -1.000
E range max (V)     1.000
I Range             Auto
Bandwidth           5
nc cycles           0
goto Ns'            0
nr cycles           0
inc. cycle          0

Modify on : 09/05/2018 14:32
No text export
ff                  8.000

freq/Hz	Re(Z)/Ohm	-Im(Z)/Ohm	|Z|/Ohm	Phase(Z)/deg	time/s	<Ewe>/V	<I>/mA	Cs/µF	Cp/µF	cycle number	I Range	|Ewe|/V	|I|/A	Re(Y)/Ohm-1	Im(Y)/Ohm-1	|Y|/Ohm-1	Phase(Y)/deg	Re(C)/nF	Im(C)/nF	|C|/nF	Phase(C)/deg	Re(M)	Im(M)	|M|	Phase(M)/deg	Re(Permittivity)	Im(Permittivity)	|Permittivity|	Phase(Permittivity)/deg	Re(Resistivity)/Ohm.cm	Im(Resistivity)/Ohm.cm	|Resistivity|/Ohm.cm	Phase(Resistivity)/deg	Re(Conductivity)/mS/cm	Im(Conductivity)/mS/cm	|Conductivity|/mS/cm	Phase(Conductivity)/deg	Tan(Delta)	Loss Angle(Delta)/deg
200019	149.19	0.458266	149.191	-0.175995	09/05/2018 13:41:40.3311	-0.00583581	0.00214332	1.73632	1.63826e-05	1	11	0.0181582	0.000121711	0.0067028	2.0589e-05	0.00670284	0.175995	0.0163826	5.3334	5.33343	-89.824	0.0000000E+000	0.0000000E+000	0.0000000E+000	89.824	0.0000000E+000	0.0000000E+000	0.0000000E+000	-89.824	0.0000000E+000	0.0000000E+000	0.0000000E+000	-0.175995	0.0000000E+000	0.0000000E+000	0.0000000E+000	0.175995	325.553	89.824
83828.1	148.571	1.53446	148.579	-0.591738	09/05/2018 13:41:43.5251	-0.0057176	0.00273102	1.2373	0.000131969	1	11	0.0206647	0.000139082	0.00673007	6.95091e-05	0.00673043	0.591738	0.131969	12.7776	12.7783	-89.4083	0.0000000E+000	0.0000000E+000	0.0000000E+000	89.4083	0.0000000E+000	0.0000000E+000	0.0000000E+000	-89.4083	0.0000000E+000	0.0000000E+000	0.0000000E+000	-0.591738	0.0000000E+000	0.0000000E+000	0.0000000E+000	0.591738	96.8228	89.4083
35136.7	149.423	2.32787	149.441	-0.892542	09/05/2018 13:41:46.7191	-0.00570285	0.00281568	1.94581	0.000472147	1	11	0.0203984	0.000136498	0.00669078	0.000104236	0.0066916	0.892542	0.472146	30.3065	30.3102	-89.1075	0.0000000E+000	0.0000000E+000	0.0000000E+000	89.1075	0.0000000E+000	0.0000000E+000	0.0000000E+000	-89.1075	0.0000000E+000	0.0000000E+000	0.0000000E+000	-0.892542	0.0000000E+000	0.0000000E+000	0.0000000E+000	0.892542	64.1888	89.1075
14726.6	150.462	3.31656	150.499	-1.26274	09/05/2018 13:41:49.7881	-0.00570421	0.00283395	3.2586	0.00158249	1	11	0.0202564	0.000134595	0.00664295	0.000146427	0.00664457	1.26274	1.58248	71.7926	71.8101	-88.7373	0.0000000E+000	0.0000000E+000	0.0000000E+000	88.7373	0.0000000E+000	0.0000000E+000	0.0000000E+000	-88.7373	0.0000000E+000	0.0000000E+000	0.0000000E+000	-1.26274	0.0000000E+000	0.0000000E+000	0.0000000E+000	1.26274	45.367	88.7373
6195.49	152.395	5.13169	152.482	-1.92863	09/05/2018 13:41:53.2339	-0.00569082	0.00278566	5.00592	0.00566983	1	11	0.0214738	0.000140829	0.00655445	0.000220712	0.00655817	1.92863	5.66984	168.376	168.472	-88.0714	0.0000000E+000	0.0000000E+000	0.0000000E+000	88.0714	0.0000000E+000	0.0000000E+000	0.0000000E+000	-88.0714	0.0000000E+000	0.0000000E+000	0.0000000E+000	-1.92863	0.0000000E+000	0.0000000E+000	0.0000000E+000	1.92863	29.6969	88.0714
2585.83	155.881	7.33174	156.053	-2.69288	09/05/2018 13:41:58.2947	-0.00569044	0.00279461	8.39486	0.0185303	1	11	0.0216922	0.000139005	0.00640099	0.000301065	0.00640806	2.69288	18.5303	393.974	394.41	-87.3071	0.0000000E+000	0.0000000E+000	0.0000000E+000	87.3071	0.0000000E+000	0.0000000E+000	0.0000000E+000	-87.3071	0.0000000E+000	0.0000000E+000	0.0000000E+000	-2.69288	0.0000000E+000	0.0000000E+000	0.0000000E+000	2.69288	21.2611	87.3071
1083.96	160.437	8.98701	160.688	-3.20612	09/05/2018 13:42:03.3579	-0.00568817	0.00277559	16.3377	0.0511039	1	11	0.0217231	0.000135188	0.00621349	0.000348054	0.00622323	3.20612	51.1039	912.31	913.74	-86.7939	0.0000000E+000	0.0000000E+000	0.0000000E+000	86.7939	0.0000000E+000	0.0000000E+000	0.0000000E+000	-86.7939	0.0000000E+000	0.0000000E+000	0.0000000E+000	-3.20612	0.0000000E+000	0.0000000E+000	0.0000000E+000	3.20612	17.8521	86.7939
454.564	165.172	11.1374	165.547	-3.85758	09/05/2018 13:42:08.4129	-0.00569194	0.00275694	31.4369	0.142288	1	11	0.0217217	0.000131212	0.00602689	0.00040639	0.00604058	3.85758	142.288	2110.18	2114.97	-86.1424	0.0000000E+000	0.0000000E+000	0.0000000E+000	86.1424	0.0000000E+000	0.0000000E+000	0.0000000E+000	-86.1424	0.0000000E+000	0.0000000E+000	0.0000000E+000	-3.85758	0.0000000E+000	0.0000000E+000	0.0000000E+000	3.85758	14.8303	86.1424
190.549	170.856	15.3559	171.544	-5.13573	09/05/2018 13:42:13.4712	-0.00569264	0.00275843	54.3926	0.435848	1	11	0.0217212	0.000126621	0.00580599	0.00052182	0.00582939	5.13573	435.848	4849.43	4868.97	-84.8643	0.0000000E+000	0.0000000E+000	0.0000000E+000	84.8643	0.0000000E+000	0.0000000E+000	0.0000000E+000	-84.8643	0.0000000E+000	0.0000000E+000	0.0000000E+000	-5.13573	0.0000000E+000	0.0000000E+000	0.0000000E+000	5.13573	11.1264	84.8643
79.8212	179.038	22.5534	180.453	-7.17972	09/05/2018 13:42:18.5382	-0.0056971	0.0027506	88.4076	1.38097	1	11	0.0217227	0.000120379	0.00549815	0.000692601	0.0055416	7.17972	1380.97	10962.7	11049.4	-82.8203	0.0000000E+000	0.0000000E+000	0.0000000E+000	82.8203	0.0000000E+000	0.0000000E+000	0.0000000E+000	-82.8203	0.0000000E+000	0.0000000E+000	0.0000000E+000	-7.17972	0.0000000E+000	0.0000000E+000	0.0000000E+000	7.17972	7.93841	82.8203
33.4276	191.37	34.0407	194.374	-10.0862	09/05/2018 13:42:23.9382	-0.00568752	0.000239337	139.868	4.28978	1	12	0.0217281	0.000111785	0.0050652	0.00090099	0.00514471	10.0862	4289.78	24116.4	24494.9	-79.9138	0.0000000E+000	0.0000000E+000	0.0000000E+000	79.9138	0.0000000E+000	0.0000000E+000	0.0000000E+000	-79.9138	0.0000000E+000	0.0000000E+000	0.0000000E+000	-10.0862	0.0000000E+000	0.0000000E+000	0.0000000E+000	10.0862	5.62182	79.9138
[...]
2.46607	281.661	116.908	304.959	-22.5416	09/05/2018 13:42:42.1383	-0.00568443	0.000251236	552.043	81.1286	1	12	0.0217201	7.12229e-05	0.00302861	0.00125707	0.00327913	22.5416	81128.6	195460	211628	-67.4584	0.0000000E+000	0.0000000E+000	0.0000000E+000	67.4584	0.0000000E+000	0.0000000E+000	0.0000000E+000	-67.4584	0.0000000E+000	0.0000000E+000	0.0000000E+000	-22.5416	0.0000000E+000	0.0000000E+000	0.0000000E+000	22.5416	2.40926	67.4584
1.0334	345.867	176.444	388.274	-27.0285	09/05/2018 13:43:00.2359	-0.00568187	0.000255653	872.859	180.254	1	12	0.0217194	5.59384e-05	0.00229421	0.00117039	0.0025755	27.0285	180254	353334	396656	-62.9715	0.0000000E+000	0.0000000E+000	0.0000000E+000	62.9715	0.0000000E+000	0.0000000E+000	0.0000000E+000	-62.9715	0.0000000E+000	0.0000000E+000	0.0000000E+000	-27.0285	0.0000000E+000	0.0000000E+000	0.0000000E+000	27.0285	1.9602	62.9715
0.433065	442.214	267.493	516.822	-31.1696	09/05/2018 13:43:44.8809	-0.0056732	7.62262e-05	1373.9	368.041	1	13	0.0217215	4.2029e-05	0.00165558	0.00100145	0.0019349	31.1696	368041	608438	711091	-58.8304	0.0000000E+000	0.0000000E+000	0.0000000E+000	58.8304	0.0000000E+000	0.0000000E+000	0.0000000E+000	-58.8304	0.0000000E+000	0.0000000E+000	0.0000000E+000	-31.1696	0.0000000E+000	0.0000000E+000	0.0000000E+000	31.1696	1.65318	58.8304
0.181534	589.45	407.633	716.67	-34.6657	09/05/2018 13:45:26.9185	-0.00568032	4.72982e-05	2150.76	695.814	1	13	0.0217178	3.03037e-05	0.00114765	0.000793653	0.00139534	34.6657	695813	1.00617e+06	1.22333e+06	-55.3343	0.0000000E+000	0.0000000E+000	0.0000000E+000	55.3343	0.0000000E+000	0.0000000E+000	0.0000000E+000	-55.3343	0.0000000E+000	0.0000000E+000	0.0000000E+000	-34.6657	0.0000000E+000	0.0000000E+000	0.0000000E+000	34.6657	1.44603	55.3343
0.0761037	782.163	599.8	985.667	-37.4827	09/05/2018 13:49:29.9248	-0.005675	3.93426e-05	3486.65	1291.1	1	13	0.0217181	2.20339e-05	0.000805076	0.000617371	0.00101454	37.4827	1.2911e+06	1.68365e+06	2.1217e+06	-52.5173	0.0000000E+000	0.0000000E+000	0.0000000E+000	52.5173	0.0000000E+000	0.0000000E+000	0.0000000E+000	-52.5173	0.0000000E+000	0.0000000E+000	0.0000000E+000	-37.4827	0.0000000E+000	0.0000000E+000	0.0000000E+000	37.4827	1.30404	52.5173
0.0319138	918.431	1003.25	1360.15	-47.5272	09/05/2018 13:59:09.2193	-0.00568421	3.40196e-05	4970.89	2704.41	1	13	0.0217163	1.59661e-05	0.000496444	0.00054229	0.000735211	47.5272	2.70441e+06	2.47578e+06	3.66652e+06	-42.4728	0.0000000E+000	0.0000000E+000	0.0000000E+000	42.4728	0.0000000E+000	0.0000000E+000	0.0000000E+000	-42.4728	0.0000000E+000	0.0000000E+000	0.0000000E+000	-47.5272	0.0000000E+000	0.0000000E+000	0.0000000E+000	47.5272	0.915459	42.4728
0.0133776	1003.63	2083.84	2312.93	-64.2833	09/05/2018 14:22:11.8411	-0.0056795	3.67035e-05	5709.25	4634.27	1	13	0.0217173	9.3895e-06	0.000187607	0.000389528	0.000432352	64.2833	4.63427e+06	2.23198e+06	5.14376e+06	-25.7167	0.0000000E+000	0.0000000E+000	0.0000000E+000	25.7167	0.0000000E+000	0.0000000E+000	0.0000000E+000	-25.7167	0.0000000E+000	0.0000000E+000	0.0000000E+000	-64.2833	0.0000000E+000	0.0000000E+000	0.0000000E+000	64.2833	0.481626	25.7167
0.0080046	1062.37	3370.71	3534.17	-72.5063	09/05/2018 14:52:05.8298	-0.00566601	3.65311e-05	5898.73	5365.71	1	13	0.0217167	6.14477e-06	8.50557e-05	0.000269865	0.000282952	72.5063	5.36571e+06	1.69116e+06	5.62591e+06	-17.4937	0.0000000E+000	0.0000000E+000	0.0000000E+000	17.4937	0.0000000E+000	0.0000000E+000	0.0000000E+000	-17.4937	0.0000000E+000	0.0000000E+000	0.0000000E+000	-72.5063	0.0000000E+000	0.0000000E+000	0.0000000E+000	72.5063	0.315178	17.4937

File: RM_stacked second run D12_1_C03.mpt
EC-Lab ASCII FILE
Nb header lines : 66

Potentio Electrochemical Impedance Spectroscopy

Run on channel : 3 (SN 13993)
User :
CE vs. WE compliance from -10 V to 10 V
Electrode connection : standard
Potential control : Ewe
Ewe ctrl range : min = -1.00 V, max = 1.00 V
Safety Limits :
	Do not start on E overload
Acquisition started on : 09/05/2018 15:23:15.000
Loaded Setting File : NONE
Saved on :
	File : RM_stacked second run D12_1_C03.mpr
	Directory : D:\Robert\Stacked cells\Second run 3% and 12% PVDF electrodes 12%compressed\
	Host : 10.5.5.6
Device : VMP3 (SN 0628)
Address : 10.5.5.5
EC-Lab for windows v11.17 (software)
Internet server v11.16 (firmware)
Command interpretor v11.16 (firmware)
Electrode material :
Initial state :
Electrolyte :
Comments :
Electrode surface area : 0.001 cm²
Characteristic mass : 0.001 g
Equivalent Weight : 0.000 g/eq.
Density : 0.000 g/cm3
Volume (V) : 0.000 m³
Text export
   Mode : Standard
   Time format : Elapsed
Cycle Definition : Charge/Discharge alternance
Mode                Single sine
E (V)               0.0000
vs.                 Eoc
tE (h:m:s)          0:00:3.0000
record              1
dI                  0.000
unit dI             mA
dt (s)              60.000
fi                  200.000
unit fi             kHz
ff                  10.000
unit ff             mHz
Nd                  8
Points              per decade
spacing             Logarithmic
Va (mV)             20.0
pw                  3.00
Na                  5
corr                0
E range min (V)     -1.000
E range max (V)     1.000
I Range             Auto
Bandwidth           5
nc cycles           0
goto Ns'            0
nr cycles           0
inc. cycle          0

freq/Hz	Re(Z)/Ohm	-Im(Z)/Ohm	|Z|/Ohm	Phase(Z)/deg	time/s	<Ewe>/V	<I>/mA	Cs/µF	Cp/µF	cycle number	I Range	|Ewe|/V	|I|/A	Re(Y)/Ohm-1	Im(Y)/Ohm-1	|Y|/Ohm-1	Phase(Y)/deg	Re(C)/nF	Im(C)/nF	|C|/nF	Phase(C)/deg	Re(M)	Im(M)	|M|	Phase(M)/deg	Re(Permittivity)	Im(Permittivity)	|Permittivity|	Phase(Permittivity)/deg	Re(Resistivity)/Ohm.cm	Im(Resistivity)/Ohm.cm	|Resistivity|/Ohm.cm	Phase(Resistivity)/deg	Re(Conductivity)/mS/cm	Im(Conductivity)/mS/cm	|Conductivity|/mS/cm	Phase(Conductivity)/deg	Tan(Delta)	Loss Angle(Delta)/deg
200019	140.98	1.49513	140.987	-0.607617	09/05/2018 15:23:20.3321	0.00855613	0.00255235	0.532192	5.98503e-05	1	11	0.0181207	0.000128527	0.00709243	7.52174e-05	0.00709283	0.607617	0.0598506	5.64343	5.64374	-89.3924	0.0000000E+000	0.0000000E+000	0.0000000E+000	89.3924	0.0000000E+000	0.0000000E+000	0.0000000E+000	-89.3924	0.0000000E+000	0.0000000E+000	0.0000000E+000	-0.607617	0.0000000E+000	0.0000000E+000	0.0000000E+000	0.607617	94.2924	89.3924
83828.1	140.606	1.53295	140.615	-0.62464	09/05/2018 15:23:23.5251	0.00860158	0.0024082	1.23852	0.000147197	1	11	0.0206745	0.000147029	0.00711121	7.75296e-05	0.00711163	0.62464	0.147197	13.5013	13.5021	-89.3754	0.0000000E+000	0.0000000E+000	0.0000000E+000	89.3754	0.0000000E+000	0.0000000E+000	0.0000000E+000	-89.3754	0.0000000E+000	0.0000000E+000	0.0000000E+000	-0.62464	0.0000000E+000	0.0000000E+000	0.0000000E+000	0.62464	91.7225	89.3754
35136.7	141.096	1.63566	141.105	-0.664177	09/05/2018 15:23:26.7201	0.00861512	0.00239255	2.76927	0.000372107	1	11	0.0204318	0.000144798	0.00708644	8.21503e-05	0.00708692	0.664177	0.372107	32.0987	32.1009	-89.3358	0.0000000E+000	0.0000000E+000	0.0000000E+000	89.3358	0.0000000E+000	0.0000000E+000	0.0000000E+000	-89.3358	0.0000000E+000	0.0000000E+000	0.0000000E+000	-0.664177	0.0000000E+000	0.0000000E+000	0.0000000E+000	0.664177	86.2619	89.3358
14726.6	141.765	2.03063	141.78	-0.820641	09/05/2018 15:23:29.7891	0.00858583	0.0022754	5.32217	0.00109174	1	11	0.0212793	0.000150087	0.00705246	0.000101018	0.00705318	0.820641	1.09174	76.2184	76.2262	-89.1794	0.0000000E+000	0.0000000E+000	0.0000000E+000	89.1794	0.0000000E+000	0.0000000E+000	0.0000000E+000	-89.1794	0.0000000E+000	0.0000000E+000	0.0000000E+000	-0.820641	0.0000000E+000	0.0000000E+000	0.0000000E+000	0.820641	69.8136	89.1794
6195.49	142.699	2.8098	142.726	-1.12803	09/05/2018 15:23:33.3799	0.00863288	0.00216477	9.1426	0.00354332	1	11	0.0204688	0.000143413	0.00700505	0.000137932	0.00700641	1.12803	3.54331	179.952	179.987	-88.872	0.0000000E+000	0.0000000E+000	0.0000000E+000	88.872	0.0000000E+000	0.0000000E+000	0.0000000E+000	-88.872	0.0000000E+000	0.0000000E+000	0.0000000E+000	-1.12803	0.0000000E+000	0.0000000E+000	0.0000000E+000	1.12803	50.7862	88.872
2585.83	144.19	4.2728	144.253	-1.69736	09/05/2018 15:23:38.4417	0.00863897	0.00218991	14.4048	0.0126382	1	11	0.0206957	0.000143468	0.00692922	0.000205335	0.00693227	1.69736	12.6381	426.487	426.674	-88.3026	0.0000000E+000	0.0000000E+000	0.0000000E+000	88.3026	0.0000000E+000	0.0000000E+000	0.0000000E+000	-88.3026	0.0000000E+000	0.0000000E+000	0.0000000E+000	-1.69736	0.0000000E+000	0.0000000E+000	0.0000000E+000	1.69736	33.746	88.3026
1083.96	146.491	6.56932	146.639	-2.56767	09/05/2018 15:23:43.5070	0.00863441	0.00220314	22.3505	0.044857	1	11	0.0207315	0.000141378	0.00681263	0.000305508	0.00681948	2.56767	44.857	1000.28	1001.29	-87.4323	0.0000000E+000	0.0000000E+000	0.0000000E+000	87.4323	0.0000000E+000	0.0000000E+000	0.0000000E+000	-87.4323	0.0000000E+000	0.0000000E+000	0.0000000E+000	-2.56767	0.0000000E+000	0.0000000E+000	0.0000000E+000	2.56767	22.2993	87.4323
454.564	149.905	10.2053	150.252	-3.89458	09/05/2018 15:23:48.5629	0.00862835	0.00205246	34.3085	0.158273	1	11	0.0207337	0.000137993	0.00664011	0.000452046	0.00665548	3.89458	158.273	2324.88	2330.26	-86.1054	0.0000000E+000	0.0000000E+000	0.0000000E+000	86.1054	0.0000000E+000	0.0000000E+000	0.0000000E+000	-86.1054	0.0000000E+000	0.0000000E+000	0.0000000E+000	-3.89458	0.0000000E+000	0.0000000E+000	0.0000000E+000	3.89458	14.689	86.1054
190.549	155.264	16.16	156.102	-5.94201	09/05/2018 15:23:53.6232	0.00862859	0.00213478	51.6859	0.553907	1	11	0.0207339	0.000132823	0.00637164	0.000663167	0.00640605	5.94201	553.907	5321.88	5350.63	-84.058	0.0000000E+000	0.0000000E+000	0.0000000E+000	84.058	0.0000000E+000	0.0000000E+000	0.0000000E+000	-84.058	0.0000000E+000	0.0000000E+000	0.0000000E+000	-5.94201	0.0000000E+000	0.0000000E+000	0.0000000E+000	5.94201	9.60789	84.058
79.8212	163.639	26.0188	165.694	-9.03448	09/05/2018 15:23:58.6902	0.00861952	0.0020465	76.6328	1.88962	1	11	0.020729	0.000125104	0.00596034	0.000947702	0.00603521	9.03448	1889.62	11884.3	12033.6	-80.9655	0.0000000E+000	0.0000000E+000	0.0000000E+000	80.9655	0.0000000E+000	0.0000000E+000	0.0000000E+000	-80.9655	0.0000000E+000	0.0000000E+000	0.0000000E+000	-9.03448	0.0000000E+000	0.0000000E+000	0.0000000E+000	9.03448	6.28925	80.9655
33.4276	177.364	42.0706	182.285	-13.3439	09/05/2018 15:24:04.0982	0.00862368	0.000162804	113.171	6.02825	1	12	0.0207432	0.000113795	0.0053378	0.00126612	0.00548591	13.3439	6028.25	25414.3	26119.4	-76.6561	0.0000000E+000	0.0000000E+000	0.0000000E+000	76.6561	0.0000000E+000	0.0000000E+000	0.0000000E+000	-76.6561	0.0000000E+000	0.0000000E+000	0.0000000E+000	-13.3439	0.0000000E+000	0.0000000E+000	0.0000000E+000	13.3439	4.21586	76.6561
[...]
2.46607	299.282	166.942	342.694	-29.1532	09/05/2018 15:24:22.2984	0.00862591	0.000176114	386.589	91.7418	1	12	0.0207301	6.04916e-05	0.00254839	0.00142152	0.00291805	29.1532	91741.8	164468	188325	-60.8468	0.0000000E+000	0.0000000E+000	0.0000000E+000	60.8468	0.0000000E+000	0.0000000E+000	0.0000000E+000	-60.8468	0.0000000E+000	0.0000000E+000	0.0000000E+000	-29.1532	0.0000000E+000	0.0000000E+000	0.0000000E+000	29.1532	1.79273	60.8468
1.0334	382.786	243.121	453.468	-32.4211	09/05/2018 15:24:41.4100	0.00862721	5.56617e-05	633.474	182.088	1	13	0.0207337	4.57226e-05	0.0018615	0.00118231	0.00220523	32.4211	182088	286692	339629	-57.5789	0.0000000E+000	0.0000000E+000	0.0000000E+000	57.5789	0.0000000E+000	0.0000000E+000	0.0000000E+000	-57.5789	0.0000000E+000	0.0000000E+000	0.0000000E+000	-32.4211	0.0000000E+000	0.0000000E+000	0.0000000E+000	32.4211	1.57446	57.5789
0.433065	447.577	393.682	596.08	-41.3343	09/05/2018 15:25:24.2821	0.00862418	4.00124e-05	933.515	407.196	1	13	0.0207288	3.47753e-05	0.00125968	0.00110799	0.00167763	41.3343	407196	462942	616542	-48.6657	0.0000000E+000	0.0000000E+000	0.0000000E+000	48.6657	0.0000000E+000	0.0000000E+000	0.0000000E+000	-48.6657	0.0000000E+000	0.0000000E+000	0.0000000E+000	-41.3343	0.0000000E+000	0.0000000E+000	0.0000000E+000	41.3343	1.1369	48.6657
0.181534	497.339	791.382	934.683	-57.853	09/05/2018 15:27:06.3198	0.0086256	4.45846e-05	1107.84	794.182	1	13	0.0207348	2.21838e-05	0.000569277	0.000905853	0.00106988	57.853	794182	499098	937989	-32.147	0.0000000E+000	0.0000000E+000	0.0000000E+000	32.147	0.0000000E+000	0.0000000E+000	0.0000000E+000	-32.147	0.0000000E+000	0.0000000E+000	0.0000000E+000	-57.853	0.0000000E+000	0.0000000E+000	0.0000000E+000	57.853	0.628443	32.147
0.0761037	571.487	1760.81	1851.23	-72.0187	09/05/2018 15:31:09.3269	0.00863422	5.10869e-05	1187.69	1074.5	1	13	0.0207255	1.11955e-05	0.000166758	0.000513798	0.000540182	72.0187	1.0745e+06	348740	1.12968e+06	-17.9813	0.0000000E+000	0.0000000E+000	0.0000000E+000	17.9813	0.0000000E+000	0.0000000E+000	0.0000000E+000	-17.9813	0.0000000E+000	0.0000000E+000	0.0000000E+000	-72.0187	0.0000000E+000	0.0000000E+000	0.0000000E+000	72.0187	0.324559	17.9813
0.0319138	733.751	4020.8	4087.2	-79.658	09/05/2018 15:40:48.6218	0.00859876	5.5581e-05	1240.31	1200.33	1	13	0.0207313	5.07225e-06	4.39234e-05	0.000240691	0.000244666	79.658	1.20033e+06	219047	1.22016e+06	-10.342	0.0000000E+000	0.0000000E+000	0.0000000E+000	10.342	0.0000000E+000	0.0000000E+000	0.0000000E+000	-10.342	0.0000000E+000	0.0000000E+000	0.0000000E+000	-79.658	0.0000000E+000	0.0000000E+000	0.0000000E+000	79.658	0.182489	10.342
0.0133776	1123.34	9221.67	9289.84	-83.0547	09/05/2018 16:04:33.2198	0.00862368	5.22016e-06	1290.13	1271.27	1	14	0.0207288	2.23134e-06	1.30165e-05	0.000106855	0.000107644	83.0547	1.27127e+06	154860	1.28066e+06	-6.94528	0.0000000E+000	0.0000000E+000	0.0000000E+000	6.94528	0.0000000E+000	0.0000000E+000	0.0000000E+000	-6.94528	0.0000000E+000	0.0000000E+000	0.0000000E+000	-83.0547	0.0000000E+000	0.0000000E+000	0.0000000E+000	83.0547	0.121815	6.94528
0.0100058	1352.71	12168.3	12243.3	-83.6567	09/05/2018 16:17:53.3813	0.0086354	5.33072e-06	1307.19	1291.24	1	14	0.0207305	1.69322e-06	9.02424e-06	8.11776e-05	8.16776e-05	83.6567	1.29124e+06	143543	1.29919e+06	-6.34334	0.0000000E+000	0.0000000E+000	0.0000000E+000	6.34334	0.0000000E+000	0.0000000E+000	0.0000000E+000	-6.34334	0.0000000E+000	0.0000000E+000	0.0000000E+000	-83.6567	0.0000000E+000	0.0000000E+000	0.0000000E+000	83.6567	0.111167	6.34334