Folder: fitting-experimental/exp data/EIS mpt files/single type

File: RM_stacked second run D3_1_C07.mpt
EC-Lab ASCII FILE
Nb header lines : 70

Potentio Electrochemical Impedance Spectroscopy

Run on channel : 7 (SN 13829)
User :
CE vs. WE compliance from -10 V to 10 V
Electrode connection : standard
Potential control : Ewe
Ewe ctrl range : min = -1.00 V, max = 1.00 V
Safety Limits :
	Do not start on E overload
Acquisition started on : 09/05/2018 13:41:21.000
Loaded Setting File : NONE
Saved on :
	File : RM_stacked second run D3_1_C07.mpr
	Directory : D:\Robert\Stacked cells\Second run 3% and 12% PVDF electrodes 12%compressed\
	Host : 10.5.5.6
Device : VMP3 (SN 0628)
Address : 10.5.5.5
EC-Lab for windows v11.17 (software)
Internet server v11.16 (firmware)
Command interpretor v11.16 (firmware)
Electrode material :
Initial state :
Electrolyte :
Comments :
Electrode surface area : 0.001 cm²
Characteristic mass : 0.001 g
Equivalent Weight : 0.000 g/eq.
Density : 0.000 g/cm3
Volume (V) : 0.000 m³
Text export
   Mode : Standard
   Time format : Elapsed
Cycle Definition : Charge/Discharge alternance
Mode                Single sine
E (V)               0.0000
vs.                 Eoc
tE (h:m:s)          0:00:3.0000
record              1
dI                  0.000
unit dI             mA
dt (s)              60.000
fi                  200.000
unit fi             kHz
ff                  10.000
unit ff             mHz
Nd                  8
Points              per decade
spacing             Logarithmic
Va (mV)             20.0
pw                  3.00
Na                  5
corr                0
E range min (V)     -1.000
E range max (V)     1.000
I Range             Auto
Bandwidth           5
nc cycles           0
goto Ns'            0
nr cycles           0
inc. cycle          0

Modify on : 09/05/2018 14:32
No text export
ff                  8.000

freq/Hz	Re(Z)/Ohm	-Im(Z)/Ohm	|Z|/Ohm	Phase(Z)/deg	time/s	<Ewe>/V	<I>/mA	Cs/µF	Cp/µF	cycle number	I Range	|Ewe|/V	|I|/A	Re(Y)/Ohm-1	Im(Y)/Ohm-1	|Y|/Ohm-1	Phase(Y)/deg	Re(C)/nF	Im(C)/nF	|C|/nF	Phase(C)/deg	Re(M)	Im(M)	|M|	Phase(M)/deg	Re(Permittivity)	Im(Permittivity)	|Permittivity|	Phase(Permittivity)/deg	Re(Resistivity)/Ohm.cm	Im(Resistivity)/Ohm.cm	|Resistivity|/Ohm.cm	Phase(Resistivity)/deg	Re(Conductivity)/mS/cm	Im(Conductivity)/mS/cm	|Conductivity|/mS/cm	Phase(Conductivity)/deg	Tan(Delta)	Loss Angle(Delta)/deg
200019	158.135	0.00140441	158.135	-0.000508849	09/05/2018 13:41:26.3321	0.0102193	-0.00114413	566.569	4.46875e-08	1	11	0.0183454	0.000116011	0.00632371	5.61614e-08	0.00632371	0.000508849	4.48913e-05	5.03176	5.03176	-89.9995	0.0000000E+000	0.0000000E+000	0.0000000E+000	89.9995	0.0000000E+000	0.0000000E+000	0.0000000E+000	-89.9995	0.0000000E+000	0.0000000E+000	0.0000000E+000	-0.000508849	0.0000000E+000	0.0000000E+000	0.0000000E+000	0.000508849	112599	89.9995
83828.1	156.426	0.461867	156.427	-0.169172	09/05/2018 13:41:29.5271	0.0107491	0.00216119	4.11068	3.58363e-05	1	11	0.0206523	0.000132025	0.00639273	1.88753e-05	0.00639276	0.169172	0.0358368	12.1372	12.1372	-89.8308	0.0000000E+000	0.0000000E+000	0.0000000E+000	89.8308	0.0000000E+000	0.0000000E+000	0.0000000E+000	-89.8308	0.0000000E+000	0.0000000E+000	0.0000000E+000	-0.169172	0.0000000E+000	0.0000000E+000	0.0000000E+000	0.169172	338.683	89.8308
35136.7	156.485	1.16732	156.489	-0.427399	09/05/2018 13:41:32.7201	0.0107739	0.00235848	3.88033	0.000215914	1	11	0.0204206	0.000130492	0.00639005	4.76675e-05	0.00639023	0.427399	0.215914	28.9443	28.9451	-89.5726	0.0000000E+000	0.0000000E+000	0.0000000E+000	89.5726	0.0000000E+000	0.0000000E+000	0.0000000E+000	-89.5726	0.0000000E+000	0.0000000E+000	0.0000000E+000	-0.427399	0.0000000E+000	0.0000000E+000	0.0000000E+000	0.427399	134.054	89.5726
14726.6	157.133	1.92361	157.145	-0.701378	09/05/2018 13:41:35.7881	0.0107748	0.00234691	5.61825	0.000841857	1	11	0.0202504	0.000128865	0.00636309	7.78968e-05	0.00636357	0.701378	0.841857	68.7681	68.7733	-89.2986	0.0000000E+000	0.0000000E+000	0.0000000E+000	89.2986	0.0000000E+000	0.0000000E+000	0.0000000E+000	-89.2986	0.0000000E+000	0.0000000E+000	0.0000000E+000	-0.701378	0.0000000E+000	0.0000000E+000	0.0000000E+000	0.701378	81.6862	89.2986
6195.49	158.215	2.89406	158.242	-1.04793	09/05/2018 13:41:39.2328	0.0107725	0.00228613	8.87641	0.00296898	1	11	0.0213752	0.000135079	0.00631838	0.000115575	0.00631944	1.04793	2.96898	162.312	162.339	-88.9521	0.0000000E+000	0.0000000E+000	0.0000000E+000	88.9521	0.0000000E+000	0.0000000E+000	0.0000000E+000	-88.9521	0.0000000E+000	0.0000000E+000	0.0000000E+000	-1.04793	0.0000000E+000	0.0000000E+000	0.0000000E+000	1.04793	54.6691	88.9521
2585.83	159.892	4.35272	159.951	-1.55937	09/05/2018 13:41:44.2957	0.0107769	0.00234934	14.1403	0.0104714	1	11	0.0215883	0.000134968	0.00624958	0.000170131	0.0062519	1.55937	10.4714	384.655	384.798	-88.4406	0.0000000E+000	0.0000000E+000	0.0000000E+000	88.4406	0.0000000E+000	0.0000000E+000	0.0000000E+000	-88.4406	0.0000000E+000	0.0000000E+000	0.0000000E+000	-1.55937	0.0000000E+000	0.0000000E+000	0.0000000E+000	1.55937	36.7339	88.4406
1083.96	162.28	6.39994	162.406	-2.25844	09/05/2018 13:41:49.3600	0.0107741	0.00229657	22.942	0.035627	1	11	0.0216229	0.000133141	0.00615262	0.000242645	0.00615741	2.25844	35.6269	903.374	904.076	-87.7416	0.0000000E+000	0.0000000E+000	0.0000000E+000	87.7416	0.0000000E+000	0.0000000E+000	0.0000000E+000	-87.7416	0.0000000E+000	0.0000000E+000	0.0000000E+000	-2.25844	0.0000000E+000	0.0000000E+000	0.0000000E+000	2.25844	25.3565	87.7416
454.564	165.732	9.56652	166.008	-3.30361	09/05/2018 13:41:54.4140	0.0107724	0.00221564	36.5992	0.121541	1	11	0.0216261	0.000130272	0.00601381	0.000347134	0.00602382	3.30361	121.541	2105.6	2109.1	-86.6964	0.0000000E+000	0.0000000E+000	0.0000000E+000	86.6964	0.0000000E+000	0.0000000E+000	0.0000000E+000	-86.6964	0.0000000E+000	0.0000000E+000	0.0000000E+000	-3.30361	0.0000000E+000	0.0000000E+000	0.0000000E+000	3.30361	17.3241	86.6964
190.549	170.867	14.6008	171.489	-4.88414	09/05/2018 13:41:59.4742	0.0107714	0.00223839	57.2055	0.414683	1	11	0.0216236	0.000126093	0.00581009	0.00049648	0.00583127	4.88414	414.682	4852.85	4870.54	-85.1159	0.0000000E+000	0.0000000E+000	0.0000000E+000	85.1159	0.0000000E+000	0.0000000E+000	0.0000000E+000	-85.1159	0.0000000E+000	0.0000000E+000	0.0000000E+000	-4.88414	0.0000000E+000	0.0000000E+000	0.0000000E+000	4.88414	11.7026	85.1159
79.8212	178.804	22.486	180.212	-7.16775	09/05/2018 13:42:04.5412	0.0107752	0.00227121	88.6728	1.38052	1	11	0.0216191	0.000119965	0.00550564	0.000692376	0.00554901	7.16775	1380.52	10977.7	11064.1	-82.8323	0.0000000E+000	0.0000000E+000	0.0000000E+000	82.8323	0.0000000E+000	0.0000000E+000	0.0000000E+000	-82.8323	0.0000000E+000	0.0000000E+000	0.0000000E+000	-7.16775	0.0000000E+000	0.0000000E+000	0.0000000E+000	7.16775	7.95181	82.8323
33.4276	191.37	34.6351	194.479	-10.2586	09/05/2018 13:42:09.9412	0.0107667	0.000172934	137.467	4.36001	1	12	0.0216288	0.000111214	0.00505975	0.00091574	0.00514195	10.2586	4360.01	24090.4	24481.8	-79.7414	0.0000000E+000	0.0000000E+000	0.0000000E+000	79.7414	0.0000000E+000	0.0000000E+000	0.0000000E+000	-79.7414	0.0000000E+000	0.0000000E+000	0.0000000E+000	-10.2586	0.0000000E+000	0.0000000E+000	0.0000000E+000	10.2586	5.52531	79.7414
[...]
2.46607	284.183	120.678	308.744	-23.0085	09/05/2018 13:42:28.1454	0.0107765	0.000214337	534.793	81.7047	1	12	0.0216206	7.00276e-05	0.00298126	0.00126599	0.00323893	23.0085	81704.6	192404	209034	-66.9915	0.0000000E+000	0.0000000E+000	0.0000000E+000	66.9915	0.0000000E+000	0.0000000E+000	0.0000000E+000	-66.9915	0.0000000E+000	0.0000000E+000	0.0000000E+000	-23.0085	0.0000000E+000	0.0000000E+000	0.0000000E+000	23.0085	2.35488	66.9915
1.0334	350.439	182.605	395.161	-27.523	09/05/2018 13:42:46.2430	0.0107782	0.000251657	843.409	180.102	1	12	0.0216211	5.47146e-05	0.00224421	0.00116941	0.00253061	27.523	180102	345634	389743	-62.477	0.0000000E+000	0.0000000E+000	0.0000000E+000	62.477	0.0000000E+000	0.0000000E+000	0.0000000E+000	-62.477	0.0000000E+000	0.0000000E+000	0.0000000E+000	-27.523	0.0000000E+000	0.0000000E+000	0.0000000E+000	27.523	1.9191	62.477
0.433065	449.684	277.951	528.651	-31.7203	09/05/2018 13:43:30.8889	0.0107863	-9.85024e-06	1322.21	365.507	1	13	0.0216234	4.09029e-05	0.00160905	0.000994555	0.00189161	31.7203	365507	591337	695180	-58.2797	0.0000000E+000	0.0000000E+000	0.0000000E+000	58.2797	0.0000000E+000	0.0000000E+000	0.0000000E+000	-58.2797	0.0000000E+000	0.0000000E+000	0.0000000E+000	-31.7203	0.0000000E+000	0.0000000E+000	0.0000000E+000	31.7203	1.61786	58.2797
0.181534	605.625	422.327	738.338	-34.8896	09/05/2018 13:45:12.9274	0.0107914	1.41551e-05	2075.93	679.206	1	13	0.0216227	2.92857e-05	0.00111095	0.00077471	0.00135439	34.8896	679205	973994	1.18743e+06	-55.1104	0.0000000E+000	0.0000000E+000	0.0000000E+000	55.1104	0.0000000E+000	0.0000000E+000	0.0000000E+000	-55.1104	0.0000000E+000	0.0000000E+000	0.0000000E+000	-34.8896	0.0000000E+000	0.0000000E+000	0.0000000E+000	34.8896	1.43402	55.1104
0.0761037	808.658	611.523	1013.85	-37.0973	09/05/2018 13:49:15.9360	0.0107909	2.29065e-05	3419.81	1244.18	1	13	0.0216203	2.1325e-05	0.000786718	0.000594932	0.000986341	37.0973	1.24418e+06	1.64526e+06	2.06273e+06	-52.9027	0.0000000E+000	0.0000000E+000	0.0000000E+000	52.9027	0.0000000E+000	0.0000000E+000	0.0000000E+000	-52.9027	0.0000000E+000	0.0000000E+000	0.0000000E+000	-37.0973	0.0000000E+000	0.0000000E+000	0.0000000E+000	37.0973	1.32237	52.9027
0.0319138	944.361	1013.07	1384.97	-47.0104	09/05/2018 13:58:55.2333	0.0107857	5.58894e-06	4922.67	2633.92	1	13	0.0216219	1.56119e-05	0.000492333	0.000528155	0.000722039	47.0104	2.63392e+06	2.45528e+06	3.60083e+06	-42.9896	0.0000000E+000	0.0000000E+000	0.0000000E+000	42.9896	0.0000000E+000	0.0000000E+000	0.0000000E+000	-42.9896	0.0000000E+000	0.0000000E+000	0.0000000E+000	-47.0104	0.0000000E+000	0.0000000E+000	0.0000000E+000	47.0104	0.932175	42.9896
0.0133776	1027.13	2111.88	2348.41	-64.0635	09/05/2018 14:21:57.8615	0.0108072	2.22611e-05	5633.44	4555.79	1	13	0.0216201	9.20626e-06	0.000186242	0.000382931	0.00042582	64.0635	4.55579e+06	2.21575e+06	5.06604e+06	-25.9365	0.0000000E+000	0.0000000E+000	0.0000000E+000	25.9365	0.0000000E+000	0.0000000E+000	0.0000000E+000	-25.9365	0.0000000E+000	0.0000000E+000	0.0000000E+000	-64.0635	0.0000000E+000	0.0000000E+000	0.0000000E+000	64.0635	0.48636	25.9365
0.0080046	1087.1	3418.5	3587.19	-72.359	09/05/2018 14:51:51.8604	0.0108127	2.5274e-05	5816.28	5282.11	1	13	0.0216198	6.02694e-06	8.44817e-05	0.000265661	0.00027877	72.359	5.28211e+06	1.67974e+06	5.54276e+06	-17.641	0.0000000E+000	0.0000000E+000	0.0000000E+000	17.641	0.0000000E+000	0.0000000E+000	0.0000000E+000	-17.641	0.0000000E+000	0.0000000E+000	0.0000000E+000	-72.359	0.0000000E+000	0.0000000E+000	0.0000000E+000	72.359	0.318006	17.641

File: RM_stacked second run S12_1_C05.mpt
EC-Lab ASCII FILE
Nb header lines : 66

Potentio Electrochemical Impedance Spectroscopy

Run on channel : 5 (SN 13220)
User :
CE vs. WE compliance from -10 V to 10 V
Electrode connection : standard
Potential control : Ewe
Ewe ctrl range : min = -1.00 V, max = 1.00 V
Safety Limits :
	Do not start on E overload
Acquisition started on : 09/05/2018 13:40:50.000
Loaded Setting File : NONE
Saved on :
	File : RM_stacked second run S12_1_C05.mpr
	Directory : D:\Robert\Stacked cells\Second run 3% and 12% PVDF electrodes 12%compressed\
	Host : 10.5.5.6
Device : VMP3 (SN 0628)
Address : 10.5.5.5
EC-Lab for windows v11.17 (software)
Internet server v11.16 (firmware)
Command interpretor v11.16 (firmware)
Electrode material :
Initial state :
Electrolyte :
Comments :
Electrode surface area : 0.001 cm²
Characteristic mass : 0.001 g
Equivalent Weight : 0.000 g/eq.
Density : 0.000 g/cm3
Volume (V) : 0.000 m³
Text export
   Mode : Standard
   Time format : Elapsed
Cycle Definition : Charge/Discharge alternance
Mode                Single sine
E (V)               0.0000
vs.                 Eoc
tE (h:m:s)          0:00:3.0000
record              1
dI                  0.000
unit dI             mA
dt (s)              60.000
fi                  200.000
unit fi             kHz
ff                  10.000
unit ff             mHz
Nd                  8
Points              per decade
spacing             Logarithmic
Va (mV)             20.0
pw                  3.00
Na                  5
corr                0
E range min (V)     -1.000
E range max (V)     1.000
I Range             Auto
Bandwidth           5
nc cycles           0
goto Ns'            0
nr cycles           0
inc. cycle          0

freq/Hz	Re(Z)/Ohm	-Im(Z)/Ohm	|Z|/Ohm	Phase(Z)/deg	time/s	<Ewe>/V	<I>/mA	Cs/µF	Cp/µF	cycle number	I Range	|Ewe|/V	|I|/A	Re(Y)/Ohm-1	Im(Y)/Ohm-1	|Y|/Ohm-1	Phase(Y)/deg	Re(C)/nF	Im(C)/nF	|C|/nF	Phase(C)/deg	Re(M)	Im(M)	|M|	Phase(M)/deg	Re(Permittivity)	Im(Permittivity)	|Permittivity|	Phase(Permittivity)/deg	Re(Resistivity)/Ohm.cm	Im(Resistivity)/Ohm.cm	|Resistivity|/Ohm.cm	Phase(Resistivity)/deg	Re(Conductivity)/mS/cm	Im(Conductivity)/mS/cm	|Conductivity|/mS/cm	Phase(Conductivity)/deg	Tan(Delta)	Loss Angle(Delta)/deg
200019	147.156	-1.52589	147.163	0.59409	09/05/2018 13:40:55.3321	0.00569994	0.00458816	-0.521466	-5.60621e-05	1	11	0.0184472	0.000125351	0.0067948	-7.04566e-05	0.00679516	-0.59409	-0.0560624	5.4066	5.40689	-90.5941	0.0000000E+000	0.0000000E+000	0.0000000E+000	90.5941	0.0000000E+000	0.0000000E+000	0.0000000E+000	-90.5941	0.0000000E+000	0.0000000E+000	0.0000000E+000	0.59409	0.0000000E+000	0.0000000E+000	0.0000000E+000	-0.59409	96.4395	89.4059
83828.1	146.022	-0.064683	146.022	0.0253802	09/05/2018 13:40:58.5261	0.00536041	0.00204741	-29.3522	-5.75953e-06	1	11	0.0206937	0.000141717	0.0068483	-3.03359e-06	0.0068483	-0.0253802	-0.00576015	13.0021	13.0021	-90.0254	0.0000000E+000	0.0000000E+000	0.0000000E+000	90.0254	0.0000000E+000	0.0000000E+000	0.0000000E+000	-90.0254	0.0000000E+000	0.0000000E+000	0.0000000E+000	0.0253802	0.0000000E+000	0.0000000E+000	0.0000000E+000	-0.0253802	2257.49	89.9746
35136.7	146.174	0.885859	146.177	-0.347225	09/05/2018 13:41:01.7191	0.00537883	0.00198027	5.11322	0.000187787	1	11	0.0204138	0.000139652	0.0068409	4.14579e-05	0.00684103	0.347225	0.187789	30.9865	30.9871	-89.6528	0.0000000E+000	0.0000000E+000	0.0000000E+000	89.6528	0.0000000E+000	0.0000000E+000	0.0000000E+000	-89.6528	0.0000000E+000	0.0000000E+000	0.0000000E+000	-0.347225	0.0000000E+000	0.0000000E+000	0.0000000E+000	0.347225	165.008	89.6528
14726.6	146.735	1.69378	146.745	-0.661344	09/05/2018 13:41:04.7881	0.00538324	0.0019909	6.38059	0.000850064	1	11	0.0203978	0.000139002	0.0068141	7.86562e-05	0.00681455	0.661344	0.850067	73.6423	73.6472	-89.3387	0.0000000E+000	0.0000000E+000	0.0000000E+000	89.3387	0.0000000E+000	0.0000000E+000	0.0000000E+000	-89.3387	0.0000000E+000	0.0000000E+000	0.0000000E+000	-0.661344	0.0000000E+000	0.0000000E+000	0.0000000E+000	0.661344	86.6315	89.3387
6195.49	147.691	2.7112	147.715	-1.05168	09/05/2018 13:41:08.2338	0.00538958	0.00198549	9.47507	0.00319194	1	11	0.0215996	0.000146225	0.00676863	0.000124254	0.00676977	1.05168	3.19195	173.878	173.908	-88.9483	0.0000000E+000	0.0000000E+000	0.0000000E+000	88.9483	0.0000000E+000	0.0000000E+000	0.0000000E+000	-88.9483	0.0000000E+000	0.0000000E+000	0.0000000E+000	-1.05168	0.0000000E+000	0.0000000E+000	0.0000000E+000	1.05168	54.4742	88.9483
2585.83	149.162	4.17288	149.22	-1.60246	09/05/2018 13:41:13.2977	0.00540075	0.00204163	14.7497	0.0115346	1	11	0.021827	0.000146273	0.00669888	0.000187405	0.0067015	1.60246	11.5346	412.309	412.47	-88.3975	0.0000000E+000	0.0000000E+000	0.0000000E+000	88.3975	0.0000000E+000	0.0000000E+000	0.0000000E+000	-88.3975	0.0000000E+000	0.0000000E+000	0.0000000E+000	-1.60246	0.0000000E+000	0.0000000E+000	0.0000000E+000	1.60246	35.7456	88.3975
1083.96	151.45	6.47641	151.588	-2.44863	09/05/2018 13:41:18.3629	0.00539367	0.00199071	22.6711	0.041382	1	11	0.0218615	0.000144216	0.0065908	0.000281841	0.00659682	2.44863	41.3819	967.71	968.595	-87.5514	0.0000000E+000	0.0000000E+000	0.0000000E+000	87.5514	0.0000000E+000	0.0000000E+000	0.0000000E+000	-87.5514	0.0000000E+000	0.0000000E+000	0.0000000E+000	-2.44863	0.0000000E+000	0.0000000E+000	0.0000000E+000	2.44863	23.3848	87.5514
454.564	154.792	10.1316	155.124	-3.74483	09/05/2018 13:41:23.4180	0.00538416	0.00193345	34.5579	0.147417	1	11	0.0218657	0.000140957	0.0064327	0.000421038	0.00644647	3.74483	147.417	2252.26	2257.08	-86.2552	0.0000000E+000	0.0000000E+000	0.0000000E+000	86.2552	0.0000000E+000	0.0000000E+000	0.0000000E+000	-86.2552	0.0000000E+000	0.0000000E+000	0.0000000E+000	-3.74483	0.0000000E+000	0.0000000E+000	0.0000000E+000	3.74483	15.2782	86.2552
190.549	160.024	16.0198	160.824	-5.71679	09/05/2018 13:41:28.4782	0.00538745	0.0019618	52.1382	0.517336	1	11	0.0218644	0.000135953	0.00618707	0.000619383	0.00621799	5.71679	517.336	5167.72	5193.55	-84.2832	0.0000000E+000	0.0000000E+000	0.0000000E+000	84.2832	0.0000000E+000	0.0000000E+000	0.0000000E+000	-84.2832	0.0000000E+000	0.0000000E+000	0.0000000E+000	-5.71679	0.0000000E+000	0.0000000E+000	0.0000000E+000	5.71679	9.98909	84.2832
79.8212	168.351	25.7765	170.312	-8.70508	09/05/2018 13:41:33.5452	0.00539353	0.00195248	77.353	1.77188	1	11	0.0218666	0.000128391	0.00580392	0.000888651	0.00587156	8.70508	1771.88	11572.4	11707.3	-81.2949	0.0000000E+000	0.0000000E+000	0.0000000E+000	81.2949	0.0000000E+000	0.0000000E+000	0.0000000E+000	-81.2949	0.0000000E+000	0.0000000E+000	0.0000000E+000	-8.70508	0.0000000E+000	0.0000000E+000	0.0000000E+000	8.70508	6.53116	81.2949
33.4276	181.936	41.9028	186.699	-12.97	09/05/2018 13:41:38.9542	0.00538752	0.000169186	113.625	5.72368	1	12	0.0218764	0.000117175	0.00521957	0.00120215	0.00535622	12.97	5723.68	24851.4	25502	-77.03	0.0000000E+000	0.0000000E+000	0.0000000E+000	77.03	0.0000000E+000	0.0000000E+000	0.0000000E+000	-77.03	0.0000000E+000	0.0000000E+000	0.0000000E+000	-12.97	0.0000000E+000	0.0000000E+000	0.0000000E+000	12.97	4.34185	77.03
[...]
2.46607	274.101	169.081	322.056	-31.6686	09/05/2018 13:41:57.1543	0.00538755	0.000229821	381.698	105.208	1	12	0.0218658	6.78944e-05	0.00264271	0.00163017	0.00310505	31.6686	105208	170555	200394	-58.3314	0.0000000E+000	0.0000000E+000	0.0000000E+000	58.3314	0.0000000E+000	0.0000000E+000	0.0000000E+000	-58.3314	0.0000000E+000	0.0000000E+000	0.0000000E+000	-31.6686	0.0000000E+000	0.0000000E+000	0.0000000E+000	31.6686	1.62112	58.3314
1.0334	303.366	324.817	444.451	-46.9558	09/05/2018 13:42:16.2649	0.00538824	4.65396e-06	474.148	253.246	1	13	0.0218687	4.92037e-05	0.00153574	0.00164434	0.00224997	46.9558	253246	236522	346520	-43.0442	0.0000000E+000	0.0000000E+000	0.0000000E+000	43.0442	0.0000000E+000	0.0000000E+000	0.0000000E+000	-43.0442	0.0000000E+000	0.0000000E+000	0.0000000E+000	-46.9558	0.0000000E+000	0.0000000E+000	0.0000000E+000	46.9558	0.93396	43.0442
0.433065	340.087	704.123	781.952	-64.2198	09/05/2018 13:42:59.1393	0.00539581	1.618e-05	521.937	423.209	1	13	0.0218605	2.79564e-05	0.000556198	0.00115157	0.00127885	64.2198	423210	204407	469988	-25.7802	0.0000000E+000	0.0000000E+000	0.0000000E+000	25.7802	0.0000000E+000	0.0000000E+000	0.0000000E+000	-25.7802	0.0000000E+000	0.0000000E+000	0.0000000E+000	-64.2198	0.0000000E+000	0.0000000E+000	0.0000000E+000	64.2198	0.482993	25.7802
0.181534	412.966	1588.55	1641.35	-75.4277	09/05/2018 13:44:41.1777	0.00539524	1.90718e-05	551.901	516.964	1	13	0.0218616	1.33193e-05	0.000153289	0.000589655	0.000609255	75.4277	516964	134392	534147	-14.5723	0.0000000E+000	0.0000000E+000	0.0000000E+000	14.5723	0.0000000E+000	0.0000000E+000	0.0000000E+000	-14.5723	0.0000000E+000	0.0000000E+000	0.0000000E+000	-75.4277	0.0000000E+000	0.0000000E+000	0.0000000E+000	75.4277	0.259964	14.5723
0.0761037	584.659	3621.69	3668.57	-80.8297	09/05/2018 13:48:44.1862	0.00539669	1.63176e-05	577.436	562.77	1	13	0.0218623	5.95935e-06	4.34418e-05	0.000269102	0.000272585	80.8297	562770	90849.5	570055	-9.1703	0.0000000E+000	0.0000000E+000	0.0000000E+000	9.1703	0.0000000E+000	0.0000000E+000	0.0000000E+000	-9.1703	0.0000000E+000	0.0000000E+000	0.0000000E+000	-80.8297	0.0000000E+000	0.0000000E+000	0.0000000E+000	80.8297	0.161433	9.1703
0.0319138	1015.29	8268.49	8330.59	-82.9997	09/05/2018 13:58:41.1011	0.00539675	-1.8502e-06	603.136	594.178	1	14	0.0218627	2.62438e-06	1.46299e-05	0.000119145	0.00012004	82.9997	594178	72959.5	598640	-7.00034	0.0000000E+000	0.0000000E+000	0.0000000E+000	7.00034	0.0000000E+000	0.0000000E+000	0.0000000E+000	-7.00034	0.0000000E+000	0.0000000E+000	0.0000000E+000	-82.9997	0.0000000E+000	0.0000000E+000	0.0000000E+000	82.9997	0.122791	7.00034
0.0133776	2174.32	18803.3	18928.6	-83.4039	09/05/2018 14:21:43.7299	0.00539551	4.30354e-07	632.715	624.366	1	14	0.0218627	1.15501e-06	6.06856e-06	5.24803e-05	5.283e-05	83.4039	624366	72198.6	628527	-6.5961	0.0000000E+000	0.0000000E+000	0.0000000E+000	6.5961	0.0000000E+000	0.0000000E+000	0.0000000E+000	-6.5961	0.0000000E+000	0.0000000E+000	0.0000000E+000	-83.4039	0.0000000E+000	0.0000000E+000	0.0000000E+000	83.4039	0.115635	6.5961
0.0100058	2923.26	24701.2	24873.6	-83.2507	09/05/2018 14:35:03.8946	0.005391	1.51076e-07	643.949	635.055	1	14	0.0218623	8.78936e-07	4.72487e-06	3.99247e-05	4.02033e-05	83.2507	635055	75155.4	639487	-6.74926	0.0000000E+000	0.0000000E+000	0.0000000E+000	6.74926	0.0000000E+000	0.0000000E+000	0.0000000E+000	-6.74926	0.0000000E+000	0.0000000E+000	0.0000000E+000	-83.2507	0.0000000E+000	0.0000000E+000	0.0000000E+000	83.2507	0.118345	6.74927