Folder: fitting-experimental/exp data/EIS mpt files/single type (part 2)

File: RM_stacked second run S12_2_C06.mpt
EC-Lab ASCII FILE
Nb header lines : 66

Potentio Electrochemical Impedance Spectroscopy

Run on channel : 6 (SN 13224)
User :
CE vs. WE compliance from -10 V to 10 V
Electrode connection : standard
Potential control : Ewe
Ewe ctrl range : min = -1.00 V, max = 1.00 V
Safety Limits :
	Do not start on E overload
Acquisition started on : 09/05/2018 13:41:02.000
Loaded Setting File : NONE
Saved on :
	File : RM_stacked second run S12_2_C06.mpr
	Directory : D:\Robert\Stacked cells\Second run 3% and 12% PVDF electrodes 12%compressed\
	Host : 10.5.5.6
Device : VMP3 (SN 0628)
Address : 10.5.5.5
EC-Lab for windows v11.17 (software)
Internet server v11.16 (firmware)
Command interpretor v11.16 (firmware)
Electrode material :
Initial state :
Electrolyte :
Comments :
Electrode surface area : 0.001 cm²
Characteristic mass : 0.001 g
Equivalent Weight : 0.000 g/eq.
Density : 0.000 g/cm3
Volume (V) : 0.000 m³
Text export
   Mode : Standard
   Time format : Elapsed
Cycle Definition : Charge/Discharge alternance
Mode                Single sine
E (V)               0.0000
vs.                 Eoc
tE (h:m:s)          0:00:3.0000
record              1
dI                  0.000
unit dI             mA
dt (s)              60.000
fi                  200.000
unit fi             kHz
ff                  10.000
unit ff             mHz
Nd                  8
Points              per decade
spacing             Logarithmic
Va (mV)             20.0
pw                  3.00
Na                  5
corr                0
E range min (V)     -1.000
E range max (V)     1.000
I Range             Auto
Bandwidth           5
nc cycles           0
goto Ns'            0
nr cycles           0
inc. cycle          0

freq/Hz	Re(Z)/Ohm	-Im(Z)/Ohm	|Z|/Ohm	Phase(Z)/deg	time/s	<Ewe>/V	<I>/mA	Cs/µF	Cp/µF	cycle number	I Range	|Ewe|/V	|I|/A	Re(Y)/Ohm-1	Im(Y)/Ohm-1	|Y|/Ohm-1	Phase(Y)/deg	Re(C)/nF	Im(C)/nF	|C|/nF	Phase(C)/deg	Re(M)	Im(M)	|M|	Phase(M)/deg	Re(Permittivity)	Im(Permittivity)	|Permittivity|	Phase(Permittivity)/deg	Re(Resistivity)/Ohm.cm	Im(Resistivity)/Ohm.cm	|Resistivity|/Ohm.cm	Phase(Resistivity)/deg	Re(Conductivity)/mS/cm	Im(Conductivity)/mS/cm	|Conductivity|/mS/cm	Phase(Conductivity)/deg	Tan(Delta)	Loss Angle(Delta)/deg
200019	136.366	-0.350314	136.367	0.147188	09/05/2018 13:41:07.4771	-0.00442419	0.00391718	-2.27138	-1.49895e-05	1	11	0.0208989	0.000153255	0.00733314	-1.88382e-05	0.00733316	-0.147188	-0.0149894	5.83496	5.83498	-90.1472	0.0000000E+000	0.0000000E+000	0.0000000E+000	90.1472	0.0000000E+000	0.0000000E+000	0.0000000E+000	-90.1472	0.0000000E+000	0.0000000E+000	0.0000000E+000	0.147188	0.0000000E+000	0.0000000E+000	0.0000000E+000	-0.147188	389.269	89.8528
83828.1	135.647	0.638229	135.648	-0.26958	09/05/2018 13:41:10.6711	-0.0045719	0.00248081	2.97477	6.58536e-05	1	11	0.0207625	0.000153062	0.00737194	3.46856e-05	0.00737202	0.26958	0.065853	13.9963	13.9964	-89.7304	0.0000000E+000	0.0000000E+000	0.0000000E+000	89.7304	0.0000000E+000	0.0000000E+000	0.0000000E+000	-89.7304	0.0000000E+000	0.0000000E+000	0.0000000E+000	-0.26958	0.0000000E+000	0.0000000E+000	0.0000000E+000	0.26958	212.536	89.7304
35136.7	136.088	1.27327	136.094	-0.536056	09/05/2018 13:41:13.8641	-0.00455928	0.00294126	3.55745	0.000311387	1	11	0.0204168	0.00015002	0.00734754	6.87451e-05	0.00734786	0.536056	0.311388	33.2813	33.2828	-89.4639	0.0000000E+000	0.0000000E+000	0.0000000E+000	89.4639	0.0000000E+000	0.0000000E+000	0.0000000E+000	-89.4639	0.0000000E+000	0.0000000E+000	0.0000000E+000	-0.536056	0.0000000E+000	0.0000000E+000	0.0000000E+000	0.536056	106.881	89.4639
14726.6	136.71	1.96341	136.724	-0.822819	09/05/2018 13:41:16.9321	-0.00462779	0.0022753	5.50437	0.00113512	1	11	0.0214192	0.00015666	0.00731325	0.000105032	0.00731401	0.822819	1.13512	79.0369	79.045	-89.1772	0.0000000E+000	0.0000000E+000	0.0000000E+000	89.1772	0.0000000E+000	0.0000000E+000	0.0000000E+000	-89.1772	0.0000000E+000	0.0000000E+000	0.0000000E+000	-0.822819	0.0000000E+000	0.0000000E+000	0.0000000E+000	0.822819	69.6287	89.1772
6195.49	137.804	2.9316	137.835	-1.21871	09/05/2018 13:41:20.5048	-0.00455648	0.00268745	8.76272	0.00396395	1	11	0.0208303	0.000151124	0.00725339	0.000154307	0.00725504	1.21871	3.96396	186.331	186.373	-88.7813	0.0000000E+000	0.0000000E+000	0.0000000E+000	88.7813	0.0000000E+000	0.0000000E+000	0.0000000E+000	-88.7813	0.0000000E+000	0.0000000E+000	0.0000000E+000	-1.21871	0.0000000E+000	0.0000000E+000	0.0000000E+000	1.21871	47.0064	88.7813
2585.83	139.236	4.39729	139.306	-1.80889	09/05/2018 13:41:25.5677	-0.00454129	0.00274843	13.997	0.0139466	1	11	0.0210522	0.000151123	0.00717489	0.000226594	0.00717846	1.80889	13.9466	441.607	441.827	-88.1911	0.0000000E+000	0.0000000E+000	0.0000000E+000	88.1911	0.0000000E+000	0.0000000E+000	0.0000000E+000	-88.1911	0.0000000E+000	0.0000000E+000	0.0000000E+000	-1.80889	0.0000000E+000	0.0000000E+000	0.0000000E+000	1.80889	31.6641	88.1911
1083.96	141.612	6.64296	141.767	-2.68576	09/05/2018 13:41:30.6339	-0.00455637	0.00270367	22.1027	0.0485306	1	11	0.0210877	0.000148748	0.00704606	0.000330528	0.00705381	2.68576	48.5307	1034.55	1035.69	-87.3142	0.0000000E+000	0.0000000E+000	0.0000000E+000	87.3142	0.0000000E+000	0.0000000E+000	0.0000000E+000	-87.3142	0.0000000E+000	0.0000000E+000	0.0000000E+000	-2.68576	0.0000000E+000	0.0000000E+000	0.0000000E+000	2.68576	21.3176	87.3142
454.564	145.022	10.4216	145.396	-4.11034	09/05/2018 13:41:35.6900	-0.00450739	0.00298024	33.5962	0.172606	1	11	0.0210766	0.00014496	0.00686007	0.00049298	0.00687776	4.11034	172.606	2401.9	2408.09	-85.8897	0.0000000E+000	0.0000000E+000	0.0000000E+000	85.8897	0.0000000E+000	0.0000000E+000	0.0000000E+000	-85.8897	0.0000000E+000	0.0000000E+000	0.0000000E+000	-4.11034	0.0000000E+000	0.0000000E+000	0.0000000E+000	4.11034	13.9155	85.8897
190.549	150.485	16.2565	151.361	-6.16559	09/05/2018 13:41:40.7492	-0.00456353	0.0026563	51.3793	0.592672	1	11	0.021064	0.000139164	0.00656853	0.000709579	0.00660674	6.16559	592.673	5486.33	5518.25	-83.8344	0.0000000E+000	0.0000000E+000	0.0000000E+000	83.8344	0.0000000E+000	0.0000000E+000	0.0000000E+000	-83.8344	0.0000000E+000	0.0000000E+000	0.0000000E+000	-6.16559	0.0000000E+000	0.0000000E+000	0.0000000E+000	6.16559	9.25694	83.8344
79.8212	158.909	26.083	161.035	-9.32129	09/05/2018 13:41:45.8162	-0.00455395	0.00259308	76.4442	2.00547	1	11	0.02108	0.000130903	0.00612782	0.00100581	0.00620981	9.32129	2005.47	12218.2	12381.7	-80.6787	0.0000000E+000	0.0000000E+000	0.0000000E+000	80.6787	0.0000000E+000	0.0000000E+000	0.0000000E+000	-80.6787	0.0000000E+000	0.0000000E+000	0.0000000E+000	-9.32129	0.0000000E+000	0.0000000E+000	0.0000000E+000	9.32129	6.09244	80.6787
33.4276	172.85	42.0367	177.888	-13.6688	09/05/2018 13:41:51.2242	-0.00454614	0.000155584	113.263	6.32482	1	12	0.0211012	0.00011862	0.00546229	0.00132841	0.0056215	13.6688	6324.82	26007	26765	-76.3312	0.0000000E+000	0.0000000E+000	0.0000000E+000	76.3312	0.0000000E+000	0.0000000E+000	0.0000000E+000	-76.3312	0.0000000E+000	0.0000000E+000	0.0000000E+000	-13.6688	0.0000000E+000	0.0000000E+000	0.0000000E+000	13.6688	4.11189	76.3312
[...]
2.46607	265.895	168.485	314.781	-32.3606	09/05/2018 13:42:09.4213	-0.00453734	0.000141627	383.048	109.739	1	12	0.0210821	6.69739e-05	0.00268344	0.00170037	0.00317681	32.3606	109739	173184	205025	-57.6394	0.0000000E+000	0.0000000E+000	0.0000000E+000	57.6394	0.0000000E+000	0.0000000E+000	0.0000000E+000	-57.6394	0.0000000E+000	0.0000000E+000	0.0000000E+000	-32.3606	0.0000000E+000	0.0000000E+000	0.0000000E+000	32.3606	1.57815	57.6394
1.0334	294.819	323.43	437.636	-47.6497	09/05/2018 13:42:28.5310	-0.00454827	5.51178e-05	476.18	260.08	1	13	0.0210897	4.819e-05	0.00153932	0.00168871	0.002285	47.6497	260080	237072	351916	-42.3503	0.0000000E+000	0.0000000E+000	0.0000000E+000	42.3503	0.0000000E+000	0.0000000E+000	0.0000000E+000	-42.3503	0.0000000E+000	0.0000000E+000	0.0000000E+000	-47.6497	0.0000000E+000	0.0000000E+000	0.0000000E+000	47.6497	0.911537	42.3503
0.433065	334.13	699.283	775.009	-64.4607	09/05/2018 13:43:11.4040	-0.00453954	7.67049e-05	525.55	427.864	1	13	0.0210797	2.71992e-05	0.000556291	0.00116423	0.00129031	64.4607	427864	204441	474198	-25.5393	0.0000000E+000	0.0000000E+000	0.0000000E+000	25.5393	0.0000000E+000	0.0000000E+000	0.0000000E+000	-25.5393	0.0000000E+000	0.0000000E+000	0.0000000E+000	-64.4607	0.0000000E+000	0.0000000E+000	0.0000000E+000	64.4607	0.477818	25.5393
0.181534	409.686	1575.9	1628.28	-75.4274	09/05/2018 13:44:53.4417	-0.00453942	3.82751e-05	556.332	521.113	1	13	0.0210827	1.29479e-05	0.000154523	0.000594387	0.000614145	75.4274	521113	135474	538434	-14.5726	0.0000000E+000	0.0000000E+000	0.0000000E+000	14.5726	0.0000000E+000	0.0000000E+000	0.0000000E+000	-14.5726	0.0000000E+000	0.0000000E+000	0.0000000E+000	-75.4274	0.0000000E+000	0.0000000E+000	0.0000000E+000	75.4274	0.25997	14.5726
0.0761037	596.712	3582.27	3631.62	-80.5429	09/05/2018 13:48:56.4474	-0.00453765	3.89495e-05	583.79	568.029	1	13	0.02108	5.80455e-06	4.52442e-05	0.000271616	0.000275359	80.5429	568029	94618.8	575856	-9.45715	0.0000000E+000	0.0000000E+000	0.0000000E+000	9.45715	0.0000000E+000	0.0000000E+000	0.0000000E+000	-9.45715	0.0000000E+000	0.0000000E+000	0.0000000E+000	-80.5429	0.0000000E+000	0.0000000E+000	0.0000000E+000	80.5429	0.166574	9.45715
0.0319138	1062.84	8134.34	8203.48	-82.5559	09/05/2018 13:58:53.3549	-0.00453935	7.52487e-06	613.083	602.792	1	14	0.021078	2.56939e-06	1.57932e-05	0.000120872	0.000121899	82.5559	602792	78761	607916	-7.44411	0.0000000E+000	0.0000000E+000	0.0000000E+000	7.44411	0.0000000E+000	0.0000000E+000	0.0000000E+000	-7.44411	0.0000000E+000	0.0000000E+000	0.0000000E+000	-82.5559	0.0000000E+000	0.0000000E+000	0.0000000E+000	82.5559	0.13066	7.44412
0.0133776	2308.08	18375.5	18519.9	-82.8408	09/05/2018 14:21:55.9678	-0.00454565	9.67139e-06	647.446	637.39	1	14	0.0210805	1.13826e-06	6.72937e-06	5.3575e-05	5.3996e-05	82.8408	637390	80060.3	642398	-7.15923	0.0000000E+000	0.0000000E+000	0.0000000E+000	7.15923	0.0000000E+000	0.0000000E+000	0.0000000E+000	-7.15923	0.0000000E+000	0.0000000E+000	0.0000000E+000	-82.8408	0.0000000E+000	0.0000000E+000	0.0000000E+000	82.8408	0.125606	7.15923
0.0100058	3073.06	24124.2	24319.2	-82.7405	09/05/2018 14:35:16.1236	-0.00454159	6.16316e-06	659.351	648.823	1	14	0.02108	8.66807e-07	5.19607e-06	4.07902e-05	4.11198e-05	82.7405	648823	82650.3	654066	-7.25953	0.0000000E+000	0.0000000E+000	0.0000000E+000	7.25953	0.0000000E+000	0.0000000E+000	0.0000000E+000	-7.25953	0.0000000E+000	0.0000000E+000	0.0000000E+000	-82.7405	0.0000000E+000	0.0000000E+000	0.0000000E+000	82.7405	0.127385	7.25952