Folder: fitting-experimental/exp data/EIS mpt files/two combined (part 2)

File: RM_stacked second run DS_12+3_1_C07.mpt
EC-Lab ASCII FILE
Nb header lines : 66

Potentio Electrochemical Impedance Spectroscopy

Run on channel : 7 (SN 13829)
User :
CE vs. WE compliance from -10 V to 10 V
Electrode connection : standard
Potential control : Ewe
Ewe ctrl range : min = -1.00 V, max = 1.00 V
Safety Limits :
	Do not start on E overload
Acquisition started on : 09/05/2018 15:23:59.000
Loaded Setting File : NONE
Saved on :
	File : RM_stacked second run DS_12+3_1_C07.mpr
	Directory : D:\Robert\Stacked cells\Second run 3% and 12% PVDF electrodes 12%compressed\
	Host : 10.5.5.6
Device : VMP3 (SN 0628)
Address : 10.5.5.5
EC-Lab for windows v11.17 (software)
Internet server v11.16 (firmware)
Command interpretor v11.16 (firmware)
Electrode material :
Initial state :
Electrolyte :
Comments :
Electrode surface area : 0.001 cm²
Characteristic mass : 0.001 g
Equivalent Weight : 0.000 g/eq.
Density : 0.000 g/cm3
Volume (V) : 0.000 m³
Text export
   Mode : Standard
   Time format : Elapsed
Cycle Definition : Charge/Discharge alternance
Mode                Single sine
E (V)               0.0000
vs.                 Eoc
tE (h:m:s)          0:00:3.0000
record              1
dI                  0.000
unit dI             mA
dt (s)              60.000
fi                  200.000
unit fi             kHz
ff                  8.000
unit ff             mHz
Nd                  8
Points              per decade
spacing             Logarithmic
Va (mV)             20.0
pw                  3.00
Na                  5
corr                0
E range min (V)     -1.000
E range max (V)     1.000
I Range             Auto
Bandwidth           5
nc cycles           0
goto Ns'            0
nr cycles           0
inc. cycle          0

freq/Hz	Re(Z)/Ohm	-Im(Z)/Ohm	|Z|/Ohm	Phase(Z)/deg	time/s	<Ewe>/V	<I>/mA	Cs/µF	Cp/µF	cycle number	I Range	|Ewe|/V	|I|/A	Re(Y)/Ohm-1	Im(Y)/Ohm-1	|Y|/Ohm-1	Phase(Y)/deg	Re(C)/nF	Im(C)/nF	|C|/nF	Phase(C)/deg	Re(M)	Im(M)	|M|	Phase(M)/deg	Re(Permittivity)	Im(Permittivity)	|Permittivity|	Phase(Permittivity)/deg	Re(Resistivity)/Ohm.cm	Im(Resistivity)/Ohm.cm	|Resistivity|/Ohm.cm	Phase(Resistivity)/deg	Re(Conductivity)/mS/cm	Im(Conductivity)/mS/cm	|Conductivity|/mS/cm	Phase(Conductivity)/deg	Tan(Delta)	Loss Angle(Delta)/deg
200019	157.562	2.37999	157.58	-0.865392	09/05/2018 15:24:04.3311	-0.0237588	0.00448962	0.334328	7.62641e-05	1	11	0.0179661	0.000114012	0.00634526	9.58456e-05	0.00634598	0.865392	0.0762644	5.0489	5.04948	-89.1346	0.0000000E+000	0.0000000E+000	0.0000000E+000	89.1346	0.0000000E+000	0.0000000E+000	0.0000000E+000	-89.1346	0.0000000E+000	0.0000000E+000	0.0000000E+000	-0.865392	0.0000000E+000	0.0000000E+000	0.0000000E+000	0.865392	66.2029	89.1346
84111.3	157.067	2.8705	157.093	-1.047	09/05/2018 15:24:07.5241	-0.024087	0.00244052	0.659186	0.000220094	1	11	0.0207024	0.000131784	0.00636458	0.000116317	0.00636564	1.047	0.220093	12.043	12.045	-88.953	0.0000000E+000	0.0000000E+000	0.0000000E+000	88.953	0.0000000E+000	0.0000000E+000	0.0000000E+000	-88.953	0.0000000E+000	0.0000000E+000	0.0000000E+000	-1.047	0.0000000E+000	0.0000000E+000	0.0000000E+000	1.047	54.7177	88.953
35371.1	158.663	3.49522	158.701	-1.26198	09/05/2018 15:24:10.7191	-0.0241009	0.00240901	1.28735	0.000624433	1	11	0.0203693	0.00012835	0.00629962	0.000138776	0.00630115	1.26198	0.624432	28.3456	28.3525	-88.738	0.0000000E+000	0.0000000E+000	0.0000000E+000	88.738	0.0000000E+000	0.0000000E+000	0.0000000E+000	-88.738	0.0000000E+000	0.0000000E+000	0.0000000E+000	-1.26198	0.0000000E+000	0.0000000E+000	0.0000000E+000	1.26198	45.3942	88.738
14873	160.57	3.4982	160.608	-1.24806	09/05/2018 15:24:13.7861	-0.0240798	0.00249366	3.05897	0.00145121	1	11	0.0202688	0.0001262	0.00622485	0.000135616	0.00622633	1.24806	1.45121	66.6115	66.6273	-88.7519	0.0000000E+000	0.0000000E+000	0.0000000E+000	88.7519	0.0000000E+000	0.0000000E+000	0.0000000E+000	-88.7519	0.0000000E+000	0.0000000E+000	0.0000000E+000	-1.24806	0.0000000E+000	0.0000000E+000	0.0000000E+000	1.24806	45.9007	88.7519
6295.45	162.12	3.70825	162.162	-1.31033	09/05/2018 15:24:17.2035	-0.0240893	0.00229377	6.81749	0.00356503	1	11	0.0213745	0.000131809	0.00616505	0.000141016	0.00616666	1.31033	3.56502	155.858	155.899	-88.6897	0.0000000E+000	0.0000000E+000	0.0000000E+000	88.6897	0.0000000E+000	0.0000000E+000	0.0000000E+000	-88.6897	0.0000000E+000	0.0000000E+000	0.0000000E+000	-1.31033	0.0000000E+000	0.0000000E+000	0.0000000E+000	1.31033	43.7187	88.6897
2630.84	163.947	4.65033	164.013	-1.62475	09/05/2018 15:24:22.2687	-0.0240801	0.00235363	13.0089	0.0104581	1	11	0.0215837	0.000131597	0.00609464	0.000172874	0.00609709	1.62475	10.4581	368.7	368.848	-88.3753	0.0000000E+000	0.0000000E+000	0.0000000E+000	88.3753	0.0000000E+000	0.0000000E+000	0.0000000E+000	-88.3753	0.0000000E+000	0.0000000E+000	0.0000000E+000	-1.62475	0.0000000E+000	0.0000000E+000	0.0000000E+000	1.62475	35.2549	88.3753
1106.77	166.358	6.49864	166.484	-2.23708	09/05/2018 15:24:27.3264	-0.0240904	0.00226543	22.1279	0.0337161	1	11	0.0216175	0.000129847	0.00600199	0.000234464	0.00600657	2.23708	33.7162	863.093	863.752	-87.7629	0.0000000E+000	0.0000000E+000	0.0000000E+000	87.7629	0.0000000E+000	0.0000000E+000	0.0000000E+000	-87.7629	0.0000000E+000	0.0000000E+000	0.0000000E+000	-2.23708	0.0000000E+000	0.0000000E+000	0.0000000E+000	2.23708	25.5988	87.7629
465.149	169.814	9.53286	170.082	-3.21304	09/05/2018 15:24:32.3877	-0.0240877	0.00223895	35.8926	0.112755	1	11	0.0216243	0.000127141	0.00587028	0.00032954	0.00587952	3.21304	112.755	2008.57	2011.73	-86.787	0.0000000E+000	0.0000000E+000	0.0000000E+000	86.787	0.0000000E+000	0.0000000E+000	0.0000000E+000	-86.787	0.0000000E+000	0.0000000E+000	0.0000000E+000	-3.21304	0.0000000E+000	0.0000000E+000	0.0000000E+000	3.21304	17.8136	86.787
195.815	174.919	14.3676	175.508	-4.69566	09/05/2018 15:24:37.4429	-0.0240922	0.00219289	56.5705	0.379111	1	11	0.0216255	0.000123216	0.00567862	0.000466435	0.00569774	4.69566	379.111	4615.49	4631.03	-85.3043	0.0000000E+000	0.0000000E+000	0.0000000E+000	85.3043	0.0000000E+000	0.0000000E+000	0.0000000E+000	-85.3043	0.0000000E+000	0.0000000E+000	0.0000000E+000	-4.69566	0.0000000E+000	0.0000000E+000	0.0000000E+000	4.69566	12.1745	85.3043
82.3451	182.592	22.0232	183.915	-6.87745	09/05/2018 15:24:42.4421	-0.0240897	0.00223205	87.7612	1.25842	1	11	0.0216176	0.000117541	0.00539816	0.000651093	0.00543728	6.87745	1258.42	10433.4	10509.1	-83.1226	0.0000000E+000	0.0000000E+000	0.0000000E+000	83.1226	0.0000000E+000	0.0000000E+000	0.0000000E+000	-83.1226	0.0000000E+000	0.0000000E+000	0.0000000E+000	-6.87745	0.0000000E+000	0.0000000E+000	0.0000000E+000	6.87745	8.29091	83.1226
34.6123	194.804	33.747	197.705	-9.82813	09/05/2018 15:24:47.6820	-0.0240866	0.000228699	136.256	3.96997	1	12	0.0216296	0.000109403	0.0049838	0.000863371	0.00505803	9.82813	3969.97	22916.6	23257.9	-80.1719	0.0000000E+000	0.0000000E+000	0.0000000E+000	80.1719	0.0000000E+000	0.0000000E+000	0.0000000E+000	-80.1719	0.0000000E+000	0.0000000E+000	0.0000000E+000	-9.82813	0.0000000E+000	0.0000000E+000	0.0000000E+000	9.82813	5.77249	80.1719
[...]
2.57329	284.645	116.847	307.695	-22.3181	09/05/2018 15:25:05.2074	-0.0240806	0.000184112	529.316	76.3322	1	12	0.0216221	7.02712e-05	0.00300652	0.00123417	0.00324997	22.3181	76332.2	185950	201007	-67.6819	0.0000000E+000	0.0000000E+000	0.0000000E+000	67.6819	0.0000000E+000	0.0000000E+000	0.0000000E+000	-67.6819	0.0000000E+000	0.0000000E+000	0.0000000E+000	-22.3181	0.0000000E+000	0.0000000E+000	0.0000000E+000	22.3181	2.43606	67.6819
1.08236	348.44	176.458	390.573	-26.8587	09/05/2018 15:25:22.5022	-0.0240751	0.000253736	833.308	170.092	1	12	0.0216197	5.53538e-05	0.00228414	0.00115674	0.00256034	26.8587	170092	335868	376482	-63.1413	0.0000000E+000	0.0000000E+000	0.0000000E+000	63.1413	0.0000000E+000	0.0000000E+000	0.0000000E+000	-63.1413	0.0000000E+000	0.0000000E+000	0.0000000E+000	-26.8587	0.0000000E+000	0.0000000E+000	0.0000000E+000	26.8587	1.97463	63.1413
0.455911	444.838	263.481	517.014	-30.6386	09/05/2018 15:26:04.9906	-0.0240786	-9.82934e-06	1324.92	344.1	1	13	0.0216265	4.18296e-05	0.00166417	0.000985702	0.00193418	30.6386	344100	580948	675208	-59.3614	0.0000000E+000	0.0000000E+000	0.0000000E+000	59.3614	0.0000000E+000	0.0000000E+000	0.0000000E+000	-59.3614	0.0000000E+000	0.0000000E+000	0.0000000E+000	-30.6386	0.0000000E+000	0.0000000E+000	0.0000000E+000	30.6386	1.68831	59.3614
0.191483	556.772	387.504	678.346	-34.8373	09/05/2018 15:27:41.7620	-0.0240749	1.00529e-05	2144.94	699.944	1	13	0.0216195	3.18709e-05	0.00120997	0.000842118	0.00147417	34.8373	699944	1.00569e+06	1.22529e+06	-55.1627	0.0000000E+000	0.0000000E+000	0.0000000E+000	55.1627	0.0000000E+000	0.0000000E+000	0.0000000E+000	-55.1627	0.0000000E+000	0.0000000E+000	0.0000000E+000	-34.8373	0.0000000E+000	0.0000000E+000	0.0000000E+000	34.8373	1.43682	55.1627
0.0805064	628.613	679.301	925.529	-47.2194	09/05/2018 15:31:31.6497	-0.0240674	2.04031e-05	2910.23	1567.73	1	13	0.0216192	2.33587e-05	0.000733844	0.000793017	0.00108046	47.2194	1.56773e+06	1.45075e+06	2.13599e+06	-42.7806	0.0000000E+000	0.0000000E+000	0.0000000E+000	42.7806	0.0000000E+000	0.0000000E+000	0.0000000E+000	-42.7806	0.0000000E+000	0.0000000E+000	0.0000000E+000	-47.2194	0.0000000E+000	0.0000000E+000	0.0000000E+000	47.2194	0.925382	42.7806
0.0339084	683.031	1441.39	1595.04	-64.6451	09/05/2018 15:40:37.7067	-0.0240795	2.5462e-05	3256.35	2659.22	1	13	0.0216143	1.3551e-05	0.000268473	0.000566554	0.000626945	64.6451	2.65922e+06	1.26012e+06	2.94268e+06	-25.3549	0.0000000E+000	0.0000000E+000	0.0000000E+000	25.3549	0.0000000E+000	0.0000000E+000	0.0000000E+000	-25.3549	0.0000000E+000	0.0000000E+000	0.0000000E+000	-64.6451	0.0000000E+000	0.0000000E+000	0.0000000E+000	64.6451	0.47387	25.3549
0.0142564	773.417	3280.34	3370.28	-76.7335	09/05/2018 16:02:15.5656	-0.0240678	2.54518e-05	3403.23	3224.01	1	13	0.0216177	6.41423e-06	6.80896e-05	0.000288793	0.000296711	76.7335	3.22401e+06	760137	3.31241e+06	-13.2665	0.0000000E+000	0.0000000E+000	0.0000000E+000	13.2665	0.0000000E+000	0.0000000E+000	0.0000000E+000	-13.2665	0.0000000E+000	0.0000000E+000	0.0000000E+000	-76.7335	0.0000000E+000	0.0000000E+000	0.0000000E+000	76.7335	0.235773	13.2665
0.0080046	890.496	5729.29	5798.08	-81.1653	09/05/2018 16:32:58.8446	-0.0240634	2.2981e-06	3470.4	3388.54	1	14	0.0216187	3.7286e-06	2.64889e-05	0.000170424	0.000172471	81.1653	3.38854e+06	526676	3.42922e+06	-8.83472	0.0000000E+000	0.0000000E+000	0.0000000E+000	8.83472	0.0000000E+000	0.0000000E+000	0.0000000E+000	-8.83472	0.0000000E+000	0.0000000E+000	0.0000000E+000	-81.1653	0.0000000E+000	0.0000000E+000	0.0000000E+000	81.1653	0.155429	8.83472

File: RM_stacked second run DS_12+3_2_C08.mpt
EC-Lab ASCII FILE
Nb header lines : 66

Potentio Electrochemical Impedance Spectroscopy

Run on channel : 8 (SN 13213)
User :
CE vs. WE compliance from -10 V to 10 V
Electrode connection : standard
Potential control : Ewe
Ewe ctrl range : min = -1.00 V, max = 1.00 V
Safety Limits :
	Do not start on E overload
Acquisition started on : 09/05/2018 15:24:09.000
Loaded Setting File : NONE
Saved on :
	File : RM_stacked second run DS_12+3_2_C08.mpr
	Directory : D:\Robert\Stacked cells\Second run 3% and 12% PVDF electrodes 12%compressed\
	Host : 10.5.5.6
Device : VMP3 (SN 0628)
Address : 10.5.5.5
EC-Lab for windows v11.17 (software)
Internet server v11.16 (firmware)
Command interpretor v11.16 (firmware)
Electrode material :
Initial state :
Electrolyte :
Comments :
Electrode surface area : 0.001 cm²
Characteristic mass : 0.001 g
Equivalent Weight : 0.000 g/eq.
Density : 0.000 g/cm3
Volume (V) : 0.000 m³
Text export
   Mode : Standard
   Time format : Elapsed
Cycle Definition : Charge/Discharge alternance
Mode                Single sine
E (V)               0.0000
vs.                 Eoc
tE (h:m:s)          0:00:3.0000
record              1
dI                  0.000
unit dI             mA
dt (s)              60.000
fi                  200.000
unit fi             kHz
ff                  8.000
unit ff             mHz
Nd                  8
Points              per decade
spacing             Logarithmic
Va (mV)             20.0
pw                  3.00
Na                  5
corr                0
E range min (V)     -1.000
E range max (V)     1.000
I Range             Auto
Bandwidth           5
nc cycles           0
goto Ns'            0
nr cycles           0
inc. cycle          0

freq/Hz	Re(Z)/Ohm	-Im(Z)/Ohm	|Z|/Ohm	Phase(Z)/deg	time/s	<Ewe>/V	<I>/mA	Cs/µF	Cp/µF	cycle number	I Range	|Ewe|/V	|I|/A	Re(Y)/Ohm-1	Im(Y)/Ohm-1	|Y|/Ohm-1	Phase(Y)/deg	Re(C)/nF	Im(C)/nF	|C|/nF	Phase(C)/deg	Re(M)	Im(M)	|M|	Phase(M)/deg	Re(Permittivity)	Im(Permittivity)	|Permittivity|	Phase(Permittivity)/deg	Re(Resistivity)/Ohm.cm	Im(Resistivity)/Ohm.cm	|Resistivity|/Ohm.cm	Phase(Resistivity)/deg	Re(Conductivity)/mS/cm	Im(Conductivity)/mS/cm	|Conductivity|/mS/cm	Phase(Conductivity)/deg	Tan(Delta)	Loss Angle(Delta)/deg
200019	168.612	2.89793	168.637	-0.984644	09/05/2018 15:24:14.3321	-0.00925336	0.00369966	0.274574	8.1083e-05	1	11	0.0182584	0.00010827	0.00592902	0.000101902	0.00592989	0.984644	0.0810828	4.7177	4.7184	-89.0154	0.0000000E+000	0.0000000E+000	0.0000000E+000	89.0154	0.0000000E+000	0.0000000E+000	0.0000000E+000	-89.0154	0.0000000E+000	0.0000000E+000	0.0000000E+000	-0.984644	0.0000000E+000	0.0000000E+000	0.0000000E+000	0.984644	58.1836	89.0154
84111.3	168.276	3.43247	168.311	-1.16855	09/05/2018 15:24:17.5241	-0.00934216	0.0029365	0.551263	0.000229271	1	11	0.0206928	0.000122944	0.00594016	0.000121167	0.00594139	1.16855	0.229272	11.2399	11.2423	-88.8314	0.0000000E+000	0.0000000E+000	0.0000000E+000	88.8314	0.0000000E+000	0.0000000E+000	0.0000000E+000	-88.8314	0.0000000E+000	0.0000000E+000	0.0000000E+000	-1.16855	0.0000000E+000	0.0000000E+000	0.0000000E+000	1.16855	49.0246	88.8314
35371.1	170.146	4.84551	170.215	-1.63126	09/05/2018 15:24:20.7181	-0.00934074	0.00298181	0.928607	0.000752513	1	11	0.0204051	0.000119878	0.00587253	0.000167241	0.00587491	1.63126	0.752513	26.4239	26.4346	-88.3687	0.0000000E+000	0.0000000E+000	0.0000000E+000	88.3687	0.0000000E+000	0.0000000E+000	0.0000000E+000	-88.3687	0.0000000E+000	0.0000000E+000	0.0000000E+000	-1.63126	0.0000000E+000	0.0000000E+000	0.0000000E+000	1.63126	35.1142	88.3687
14873	173.479	5.40332	173.563	-1.78401	09/05/2018 15:24:23.7851	-0.00934788	0.00291673	1.98043	0.00191941	1	11	0.0202837	0.000116867	0.00575881	0.000179369	0.0057616	1.78401	1.91941	61.6245	61.6543	-88.216	0.0000000E+000	0.0000000E+000	0.0000000E+000	88.216	0.0000000E+000	0.0000000E+000	0.0000000E+000	-88.216	0.0000000E+000	0.0000000E+000	0.0000000E+000	-1.78401	0.0000000E+000	0.0000000E+000	0.0000000E+000	1.78401	32.1059	88.216
6295.45	176.183	5.183	176.259	-1.68506	09/05/2018 15:24:27.2025	-0.00933665	0.00278379	4.87767	0.00421765	1	11	0.0213513	0.000121136	0.00567101	0.000166831	0.00567346	1.68506	4.21766	143.369	143.431	-88.3149	0.0000000E+000	0.0000000E+000	0.0000000E+000	88.3149	0.0000000E+000	0.0000000E+000	0.0000000E+000	-88.3149	0.0000000E+000	0.0000000E+000	0.0000000E+000	-1.68506	0.0000000E+000	0.0000000E+000	0.0000000E+000	1.68506	33.9925	88.3149
2630.84	178.612	5.36739	178.693	-1.72125	09/05/2018 15:24:32.2677	-0.00933246	0.00281139	11.271	0.0101689	1	11	0.0215611	0.00012066	0.00559367	0.000168093	0.00559619	1.72125	10.1689	338.394	338.547	-88.2787	0.0000000E+000	0.0000000E+000	0.0000000E+000	88.2787	0.0000000E+000	0.0000000E+000	0.0000000E+000	-88.2787	0.0000000E+000	0.0000000E+000	0.0000000E+000	-1.72125	0.0000000E+000	0.0000000E+000	0.0000000E+000	1.72125	33.2773	88.2787
1106.77	181.192	6.88667	181.323	-2.17663	09/05/2018 15:24:37.3264	-0.00933216	0.00280803	20.8811	0.0301209	1	11	0.0215943	0.000119093	0.00551105	0.000209462	0.00551503	2.17663	30.1209	792.495	793.067	-87.8234	0.0000000E+000	0.0000000E+000	0.0000000E+000	87.8234	0.0000000E+000	0.0000000E+000	0.0000000E+000	-87.8234	0.0000000E+000	0.0000000E+000	0.0000000E+000	-2.17663	0.0000000E+000	0.0000000E+000	0.0000000E+000	2.17663	26.3105	87.8234
465.149	184.698	9.82063	184.959	-3.04362	09/05/2018 15:24:42.3857	-0.00933593	0.00275843	34.8409	0.0982234	1	11	0.0215984	0.000116774	0.00539897	0.000287069	0.00540659	3.04362	98.2234	1847.31	1849.92	-86.9564	0.0000000E+000	0.0000000E+000	0.0000000E+000	86.9564	0.0000000E+000	0.0000000E+000	0.0000000E+000	-86.9564	0.0000000E+000	0.0000000E+000	0.0000000E+000	-3.04362	0.0000000E+000	0.0000000E+000	0.0000000E+000	3.04362	18.8072	86.9564
195.815	189.848	14.7418	190.419	-4.44014	09/05/2018 15:24:47.4399	-0.00933602	0.00274147	55.1347	0.330449	1	11	0.0215943	0.000113404	0.00523581	0.000406564	0.00525157	4.44014	330.449	4255.59	4268.4	-85.5599	0.0000000E+000	0.0000000E+000	0.0000000E+000	85.5599	0.0000000E+000	0.0000000E+000	0.0000000E+000	-85.5599	0.0000000E+000	0.0000000E+000	0.0000000E+000	-4.44014	0.0000000E+000	0.0000000E+000	0.0000000E+000	4.44014	12.8782	85.5599
82.3451	197.809	22.6416	199.1	-6.52978	09/05/2018 15:24:52.4381	-0.00933201	0.0027961	85.364	1.10394	1	11	0.0215969	0.000108472	0.00499001	0.000571167	0.00502259	6.52978	1103.94	9644.58	9707.56	-83.4702	0.0000000E+000	0.0000000E+000	0.0000000E+000	83.4702	0.0000000E+000	0.0000000E+000	0.0000000E+000	-83.4702	0.0000000E+000	0.0000000E+000	0.0000000E+000	-6.52978	0.0000000E+000	0.0000000E+000	0.0000000E+000	6.52978	8.73652	83.4702
34.6123	210.286	34.8412	213.153	-9.40757	09/05/2018 15:24:57.6780	-0.00934337	0.000250295	131.976	3.52614	1	12	0.021602	0.000101345	0.00462837	0.00076685	0.00469147	9.40757	3526.14	21282.2	21572.4	-80.5924	0.0000000E+000	0.0000000E+000	0.0000000E+000	80.5924	0.0000000E+000	0.0000000E+000	0.0000000E+000	-80.5924	0.0000000E+000	0.0000000E+000	0.0000000E+000	-9.40757	0.0000000E+000	0.0000000E+000	0.0000000E+000	9.40757	6.03556	80.5924
[...]
2.57329	303.347	121.44	326.752	-21.818	09/05/2018 15:25:15.2055	-0.00932486	0.000281951	509.294	70.349	1	12	0.0215956	6.60917e-05	0.0028412	0.00113743	0.00306042	21.818	70349	175725	189284	-68.182	0.0000000E+000	0.0000000E+000	0.0000000E+000	68.182	0.0000000E+000	0.0000000E+000	0.0000000E+000	-68.182	0.0000000E+000	0.0000000E+000	0.0000000E+000	-21.818	0.0000000E+000	0.0000000E+000	0.0000000E+000	21.818	2.49791	68.182
1.08236	369.815	183.509	412.842	-26.3915	09/05/2018 15:25:32.4990	-0.00932649	0.000270712	801.288	158.321	1	12	0.0215958	5.23101e-05	0.00216978	0.00107669	0.00242223	26.3915	158320	319053	356175	-63.6085	0.0000000E+000	0.0000000E+000	0.0000000E+000	63.6085	0.0000000E+000	0.0000000E+000	0.0000000E+000	-63.6085	0.0000000E+000	0.0000000E+000	0.0000000E+000	-26.3915	0.0000000E+000	0.0000000E+000	0.0000000E+000	26.3915	2.01524	63.6085
0.455911	471.616	275.534	546.206	-30.2949	09/05/2018 15:26:14.5744	-0.00931423	5.28788e-05	1266.96	322.405	1	13	0.0215989	3.95434e-05	0.0015808	0.000923555	0.00183081	30.2949	322405	551843	639121	-59.7051	0.0000000E+000	0.0000000E+000	0.0000000E+000	59.7051	0.0000000E+000	0.0000000E+000	0.0000000E+000	-59.7051	0.0000000E+000	0.0000000E+000	0.0000000E+000	-30.2949	0.0000000E+000	0.0000000E+000	0.0000000E+000	30.2949	1.71164	59.7051
0.191483	597.541	398.639	718.309	-33.7086	09/05/2018 15:27:51.3457	-0.00932436	5.09142e-05	2085.02	642.166	1	13	0.0215962	3.00654e-05	0.0011581	0.000772604	0.00139216	33.7086	642166	962576	1.15712e+06	-56.2914	0.0000000E+000	0.0000000E+000	0.0000000E+000	56.2914	0.0000000E+000	0.0000000E+000	0.0000000E+000	-56.2914	0.0000000E+000	0.0000000E+000	0.0000000E+000	-33.7086	0.0000000E+000	0.0000000E+000	0.0000000E+000	33.7086	1.49895	56.2914
0.0805064	679.6	675.077	957.907	-44.8087	09/05/2018 15:31:41.2325	-0.00931922	4.43896e-05	2928.44	1454.44	1	13	0.0215945	2.25434e-05	0.000740639	0.00073571	0.00104394	44.8087	1.45444e+06	1.46419e+06	2.0638e+06	-45.1913	0.0000000E+000	0.0000000E+000	0.0000000E+000	45.1913	0.0000000E+000	0.0000000E+000	0.0000000E+000	-45.1913	0.0000000E+000	0.0000000E+000	0.0000000E+000	-44.8087	0.0000000E+000	0.0000000E+000	0.0000000E+000	44.8087	1.0067	45.1913
0.0339084	735.846	1412.09	1592.31	-62.4757	09/05/2018 15:40:47.2870	-0.00932209	4.27346e-05	3323.92	2614.07	1	13	0.0215944	1.35616e-05	0.000290222	0.000556935	0.000628017	62.4757	2.61407e+06	1.36221e+06	2.94771e+06	-27.5243	0.0000000E+000	0.0000000E+000	0.0000000E+000	27.5243	0.0000000E+000	0.0000000E+000	0.0000000E+000	-27.5243	0.0000000E+000	0.0000000E+000	0.0000000E+000	-62.4757	0.0000000E+000	0.0000000E+000	0.0000000E+000	62.4757	0.521105	27.5243
0.0142564	819.167	3207.49	3310.44	-75.6734	09/05/2018 16:02:25.1402	-0.00932124	3.56146e-05	3480.53	3267.41	1	13	0.0215928	6.52263e-06	7.47482e-05	0.00029268	0.000302074	75.6734	3.26741e+06	834471	3.37229e+06	-14.3266	0.0000000E+000	0.0000000E+000	0.0000000E+000	14.3266	0.0000000E+000	0.0000000E+000	0.0000000E+000	-14.3266	0.0000000E+000	0.0000000E+000	0.0000000E+000	-75.6734	0.0000000E+000	0.0000000E+000	0.0000000E+000	75.6734	0.255392	14.3266
0.0080046	923.075	5603.81	5679.33	-80.6461	09/05/2018 16:33:39.7816	-0.00930946	1.03827e-06	3548.11	3454.38	1	14	0.0215921	3.80187e-06	2.86182e-05	0.000173736	0.000176077	80.6461	3.45438e+06	569014	3.50093e+06	-9.35391	0.0000000E+000	0.0000000E+000	0.0000000E+000	9.35391	0.0000000E+000	0.0000000E+000	0.0000000E+000	-9.35391	0.0000000E+000	0.0000000E+000	0.0000000E+000	-80.6461	0.0000000E+000	0.0000000E+000	0.0000000E+000	80.6461	0.164723	9.35391