Folder: fitting-experimental/exp data/single type

File: RM_stacked second run S3_2_C04.mpt
EC-Lab ASCII FILE
Nb header lines : 66

Potentio Electrochemical Impedance Spectroscopy

Run on channel : 4 (SN 13229)
User :
CE vs. WE compliance from -10 V to 10 V
Electrode connection : standard
Potential control : Ewe
Ewe ctrl range : min = -1.00 V, max = 1.00 V
Safety Limits :
	Do not start on E overload
Acquisition started on : 09/05/2018 13:40:36.000
Loaded Setting File : NONE
Saved on :
	File : RM_stacked second run S3_2_C04.mpr
	Directory : D:\Robert\Stacked cells\Second run 3% and 12% PVDF electrodes 12%compressed\
	Host : 10.5.5.6
Device : VMP3 (SN 0628)
Address : 10.5.5.5
EC-Lab for windows v11.17 (software)
Internet server v11.16 (firmware)
Command interpretor v11.16 (firmware)
Electrode material :
Initial state :
Electrolyte :
Comments :
Electrode surface area : 0.001 cm²
Characteristic mass : 0.001 g
Equivalent Weight : 0.000 g/eq.
Density : 0.000 g/cm3
Volume (V) : 0.000 m³
Text export
   Mode : Standard
   Time format : Elapsed
Cycle Definition : Charge/Discharge alternance
Mode                Single sine
E (V)               0.0000
vs.                 Eoc
tE (h:m:s)          0:00:3.0000
record              1
dI                  0.000
unit dI             mA
dt (s)              60.000
fi                  200.000
unit fi             kHz
ff                  10.000
unit ff             mHz
Nd                  8
Points              per decade
spacing             Logarithmic
Va (mV)             20.0
pw                  3.00
Na                  5
corr                0
E range min (V)     -1.000
E range max (V)     1.000
I Range             Auto
Bandwidth           5
nc cycles           0
goto Ns'            0
nr cycles           0
inc. cycle          0

freq/Hz	Re(Z)/Ohm	-Im(Z)/Ohm	|Z|/Ohm	Phase(Z)/deg	time/s	<Ewe>/V	<I>/mA	Cs/µF	Cp/µF	cycle number	I Range	|Ewe|/V	|I|/A	Re(Y)/Ohm-1	Im(Y)/Ohm-1	|Y|/Ohm-1	Phase(Y)/deg	Re(C)/nF	Im(C)/nF	|C|/nF	Phase(C)/deg	Re(M)	Im(M)	|M|	Phase(M)/deg	Re(Permittivity)	Im(Permittivity)	|Permittivity|	Phase(Permittivity)/deg	Re(Resistivity)/Ohm.cm	Im(Resistivity)/Ohm.cm	|Resistivity|/Ohm.cm	Phase(Resistivity)/deg	Re(Conductivity)/mS/cm	Im(Conductivity)/mS/cm	|Conductivity|/mS/cm	Phase(Conductivity)/deg	Tan(Delta)	Loss Angle(Delta)/deg
200019	149.095	-1.26002	149.1	0.484202	09/05/2018 13:40:41.3331	-0.000168335	0.00169671	-0.631497	-4.50993e-05	1	11	0.0186687	0.000125209	0.00670667	-5.6679e-05	0.00670691	-0.484202	-0.045099	5.33648	5.33667	-90.4842	0.0000000E+000	0.0000000E+000	0.0000000E+000	90.4842	0.0000000E+000	0.0000000E+000	0.0000000E+000	-90.4842	0.0000000E+000	0.0000000E+000	0.0000000E+000	0.484202	0.0000000E+000	0.0000000E+000	0.0000000E+000	-0.484202	118.327	89.5158
83828.1	147.665	0.0592898	147.665	-0.0230051	09/05/2018 13:40:44.5281	-0.000169586	0.00169522	32.0221	5.16242e-06	1	11	0.0207077	0.000140234	0.00677207	2.71909e-06	0.00677207	0.0230051	0.00516186	12.8574	12.8574	-89.977	0.0000000E+000	0.0000000E+000	0.0000000E+000	89.977	0.0000000E+000	0.0000000E+000	0.0000000E+000	-89.977	0.0000000E+000	0.0000000E+000	0.0000000E+000	-0.0230051	0.0000000E+000	0.0000000E+000	0.0000000E+000	0.0230051	2490.57	89.977
35136.7	147.829	0.978355	147.832	-0.379187	09/05/2018 13:40:47.7231	-0.000146951	0.00175061	4.6298	0.000202777	1	11	0.0204015	0.000138004	0.00676428	4.47671e-05	0.00676443	0.379187	0.202777	30.6394	30.6401	-89.6208	0.0000000E+000	0.0000000E+000	0.0000000E+000	89.6208	0.0000000E+000	0.0000000E+000	0.0000000E+000	-89.6208	0.0000000E+000	0.0000000E+000	0.0000000E+000	-0.379187	0.0000000E+000	0.0000000E+000	0.0000000E+000	0.379187	151.099	89.6208
14726.6	148.37	1.81203	148.381	-0.699712	09/05/2018 13:40:50.7911	-0.000144972	0.00169261	5.96423	0.000889459	1	11	0.0203886	0.000137407	0.0067389	8.23014e-05	0.0067394	0.699712	0.889462	72.8296	72.835	-89.3003	0.0000000E+000	0.0000000E+000	0.0000000E+000	89.3003	0.0000000E+000	0.0000000E+000	0.0000000E+000	-89.3003	0.0000000E+000	0.0000000E+000	0.0000000E+000	-0.699712	0.0000000E+000	0.0000000E+000	0.0000000E+000	0.699712	81.8807	89.3003
6195.49	149.42	2.84956	149.447	-1.09254	09/05/2018 13:40:54.2368	-0.000137184	0.00170175	9.015	0.00327752	1	11	0.0216205	0.00014467	0.0066901	0.000127585	0.00669131	1.09254	3.27752	171.861	171.892	-88.9075	0.0000000E+000	0.0000000E+000	0.0000000E+000	88.9075	0.0000000E+000	0.0000000E+000	0.0000000E+000	-88.9075	0.0000000E+000	0.0000000E+000	0.0000000E+000	-1.09254	0.0000000E+000	0.0000000E+000	0.0000000E+000	1.09254	52.4362	88.9075
2585.83	151.082	4.18823	151.14	-1.58792	09/05/2018 13:40:59.3007	-0.000130349	0.00175882	14.6957	0.0112847	1	11	0.0218617	0.000144645	0.00661382	0.000183345	0.00661636	1.58792	11.2847	407.074	407.23	-88.4121	0.0000000E+000	0.0000000E+000	0.0000000E+000	88.4121	0.0000000E+000	0.0000000E+000	0.0000000E+000	-88.4121	0.0000000E+000	0.0000000E+000	0.0000000E+000	-1.58792	0.0000000E+000	0.0000000E+000	0.0000000E+000	1.58792	36.0731	88.4121
1083.96	153.41	6.22289	153.536	-2.32285	09/05/2018 13:41:04.3670	-0.000133878	0.00173196	23.5947	0.0387593	1	11	0.021896	0.000142611	0.00650776	0.000263979	0.00651311	2.32285	38.7593	955.517	956.303	-87.6771	0.0000000E+000	0.0000000E+000	0.0000000E+000	87.6771	0.0000000E+000	0.0000000E+000	0.0000000E+000	-87.6771	0.0000000E+000	0.0000000E+000	0.0000000E+000	-2.32285	0.0000000E+000	0.0000000E+000	0.0000000E+000	2.32285	24.6526	87.6771
454.564	156.763	9.30803	157.039	-3.39803	09/05/2018 13:41:09.4229	-0.000140882	0.00165662	37.6156	0.13215	1	11	0.0218986	0.000139447	0.00635665	0.000377435	0.00636784	3.39803	132.15	2225.63	2229.55	-86.602	0.0000000E+000	0.0000000E+000	0.0000000E+000	86.602	0.0000000E+000	0.0000000E+000	0.0000000E+000	-86.602	0.0000000E+000	0.0000000E+000	0.0000000E+000	-3.39803	0.0000000E+000	0.0000000E+000	0.0000000E+000	3.39803	16.8417	86.602
190.549	161.779	14.1392	162.395	-4.99487	09/05/2018 13:41:14.4812	-0.000137165	0.00169298	59.073	0.447808	1	11	0.021898	0.000134843	0.00613442	0.000536139	0.00615781	4.99487	447.808	5123.75	5143.28	-85.0051	0.0000000E+000	0.0000000E+000	0.0000000E+000	85.0051	0.0000000E+000	0.0000000E+000	0.0000000E+000	-85.0051	0.0000000E+000	0.0000000E+000	0.0000000E+000	-4.99487	0.0000000E+000	0.0000000E+000	0.0000000E+000	4.99487	11.4419	85.0051
79.8212	169.561	21.7547	170.95	-7.31112	09/05/2018 13:41:19.5482	-0.000136698	0.00165979	91.6536	1.48427	1	11	0.021897	0.00012809	0.00580209	0.000744409	0.00584965	7.31112	1484.27	11568.7	11663.6	-82.6889	0.0000000E+000	0.0000000E+000	0.0000000E+000	82.6889	0.0000000E+000	0.0000000E+000	0.0000000E+000	-82.6889	0.0000000E+000	0.0000000E+000	0.0000000E+000	-7.31112	0.0000000E+000	0.0000000E+000	0.0000000E+000	7.31112	7.79422	82.6889
33.4276	181.681	33.3401	184.715	-10.3986	09/05/2018 13:41:24.9572	-0.000141601	8.67146e-05	142.807	4.6524	1	12	0.0219073	0.000118601	0.00532483	0.000977151	0.00541374	10.3986	4652.4	25352.5	25775.8	-79.6014	0.0000000E+000	0.0000000E+000	0.0000000E+000	79.6014	0.0000000E+000	0.0000000E+000	0.0000000E+000	-79.6014	0.0000000E+000	0.0000000E+000	0.0000000E+000	-10.3986	0.0000000E+000	0.0000000E+000	0.0000000E+000	10.3986	5.44934	79.6014
14.0176	200.219	50.7383	206.548	-14.2202	09/05/2018 13:41:30.2328	-0.000144421	9.80485e-05	223.774	13.5033	1	12	0.0219005	0.000106031	0.00469314	0.00118931	0.00484149	14.2202	13503.3	53285.5	54969.8	-75.7798	0.0000000E+000	0.0000000E+000	0.0000000E+000	75.7798	0.0000000E+000	0.0000000E+000	0.0000000E+000	-75.7798	0.0000000E+000	0.0000000E+000	0.0000000E+000	-14.2202	0.0000000E+000	0.0000000E+000	0.0000000E+000	14.2202	3.94611	75.7798
5.88291	228.286	76.7075	240.829	-18.5731	09/05/2018 13:41:35.4147	-0.000148128	0.0001447	352.688	35.7806	1	12	0.0218987	9.09304e-05	0.00393606	0.00132257	0.00415232	18.5731	35780.6	106485	112336	-71.4269	0.0000000E+000	0.0000000E+000	0.0000000E+000	71.4269	0.0000000E+000	0.0000000E+000	0.0000000E+000	-71.4269	0.0000000E+000	0.0000000E+000	0.0000000E+000	-18.5731	0.0000000E+000	0.0000000E+000	0.0000000E+000	18.5731	2.97606	71.4269
2.46607	270.45	116.04	294.293	-23.2222	09/05/2018 13:41:43.1554	-0.000141964	0.000141424	556.172	86.469	1	12	0.0218977	7.44078e-05	0.00312267	0.00133982	0.00339797	23.2222	86468.9	201531	219298	-66.7778	0.0000000E+000	0.0000000E+000	0.0000000E+000	66.7778	0.0000000E+000	0.0000000E+000	0.0000000E+000	-66.7778	0.0000000E+000	0.0000000E+000	0.0000000E+000	-23.2222	0.0000000E+000	0.0000000E+000	0.0000000E+000	23.2222	2.33067	66.7778
1.0334	334.421	175.911	377.865	-27.7451	09/05/2018 13:42:01.2529	-0.000137314	0.000134294	875.506	189.745	1	12	0.0218973	5.79501e-05	0.00234218	0.00123202	0.00264645	27.7451	189745	360721	407582	-62.2549	0.0000000E+000	0.0000000E+000	0.0000000E+000	62.2549	0.0000000E+000	0.0000000E+000	0.0000000E+000	-62.2549	0.0000000E+000	0.0000000E+000	0.0000000E+000	-27.7451	0.0000000E+000	0.0000000E+000	0.0000000E+000	27.7451	1.90108	62.2549
0.433065	421.62	257.681	494.129	-31.432	09/05/2018 13:42:45.8994	-0.00013346	-3.7919e-05	1426.21	387.855	1	13	0.0218957	4.43116e-05	0.0017268	0.00105536	0.00202376	31.432	387855	634611	743749	-58.568	0.0000000E+000	0.0000000E+000	0.0000000E+000	58.568	0.0000000E+000	0.0000000E+000	0.0000000E+000	-58.568	0.0000000E+000	0.0000000E+000	0.0000000E+000	-31.432	0.0000000E+000	0.0000000E+000	0.0000000E+000	31.432	1.63621	58.568
0.181534	487.85	419.505	643.414	-40.6924	09/05/2018 13:44:27.9382	-0.000130918	2.25181e-05	2089.9	888.419	1	13	0.0218963	3.40314e-05	0.00117843	0.00101334	0.00155421	40.6924	888419	1.03316e+06	1.36261e+06	-49.3076	0.0000000E+000	0.0000000E+000	0.0000000E+000	49.3076	0.0000000E+000	0.0000000E+000	0.0000000E+000	-49.3076	0.0000000E+000	0.0000000E+000	0.0000000E+000	-40.6924	0.0000000E+000	0.0000000E+000	0.0000000E+000	40.6924	1.16292	49.3076
0.0761037	533.931	850.378	1004.1	-57.8763	09/05/2018 13:48:30.9468	-0.000132401	2.30695e-05	2459.25	1763.88	1	13	0.0218962	2.18067e-05	0.000529576	0.000843441	0.000995913	57.8763	1.76388e+06	1.1075e+06	2.08274e+06	-32.1237	0.0000000E+000	0.0000000E+000	0.0000000E+000	32.1237	0.0000000E+000	0.0000000E+000	0.0000000E+000	-32.1237	0.0000000E+000	0.0000000E+000	0.0000000E+000	-57.8763	0.0000000E+000	0.0000000E+000	0.0000000E+000	57.8763	0.627875	32.1237
0.0319138	600.053	1903.37	1995.71	-72.5021	09/05/2018 13:58:10.2454	-0.000130163	3.40137e-05	2620.11	2383.24	1	13	0.0218947	1.09709e-05	0.000150658	0.000477888	0.000501074	72.5021	2.38324e+06	751337	2.49887e+06	-17.4979	0.0000000E+000	0.0000000E+000	0.0000000E+000	17.4979	0.0000000E+000	0.0000000E+000	0.0000000E+000	-17.4979	0.0000000E+000	0.0000000E+000	0.0000000E+000	-72.5021	0.0000000E+000	0.0000000E+000	0.0000000E+000	72.5021	0.315259	17.4979
0.0133776	748.746	4378.31	4441.87	-80.2956	09/05/2018 14:22:27.7627	-0.000132082	4.00923e-06	2717.29	2640.08	1	14	0.0218955	4.92933e-06	3.79492e-05	0.000221909	0.00022513	80.2956	2.64008e+06	451487	2.67841e+06	-9.70442	0.0000000E+000	0.0000000E+000	0.0000000E+000	9.70442	0.0000000E+000	0.0000000E+000	0.0000000E+000	-9.70442	0.0000000E+000	0.0000000E+000	0.0000000E+000	-80.2956	0.0000000E+000	0.0000000E+000	0.0000000E+000	80.2956	0.171013	9.70442
0.0100058	835.012	5789.6	5849.5	-81.793	09/05/2018 14:35:47.9291	-0.000134467	2.07965e-06	2747.4	2691.41	1	14	0.0218949	3.74304e-06	2.44036e-05	0.000169204	0.000170955	81.793	2.69141e+06	388172	2.71926e+06	-8.20696	0.0000000E+000	0.0000000E+000	0.0000000E+000	8.20696	0.0000000E+000	0.0000000E+000	0.0000000E+000	-8.20696	0.0000000E+000	0.0000000E+000	0.0000000E+000	-81.793	0.0000000E+000	0.0000000E+000	0.0000000E+000	81.793	0.144226	8.20697